{
    "id": "67e98064-8286-4597-952d-0f980838bb47",
    "meta": {
        "profile": [
            "https://nrces.in/ndhm/fhir/r4/StructureDefinition/DocumentBundle"
        ],
        "security": [
            {
                "code": "V",
                "system": "http://terminology.hl7.org/CodeSystem/v3-Confidentiality",
                "display": "very restricted"
            }
        ],
        "versionId": "1",
        "lastUpdated": "2025-05-03T08:54:09.163+00:00"
    },
    "type": "document",
    "entry": [
        {
            "fullUrl": "urn:uuid:1469e71b-ac5d-4259-ae39-bd0e16b4fed8",
            "resource": {
                "id": "1469e71b-ac5d-4259-ae39-bd0e16b4fed8",
                "date": "2025-05-03T08:54:09.162+00:00",
                "meta": {
                    "profile": [
                        "https://nrces.in/ndhm/fhir/r4/StructureDefinition/DiagnosticReportRecord"
                    ],
                    "versionId": "1",
                    "lastUpdated": "2025-05-03T08:54:09.163+00:00"
                },
                "type": {
                    "text": "Diagnostic Report- Lab",
                    "coding": [
                        {
                            "code": "721981007",
                            "system": "http://snomed.info/sct",
                            "display": "Diagnostic studies report"
                        }
                    ]
                },
                "title": "Diagnostic Report- Lab",
                "author": [
                    {
                        "display": "Practitioner",
                        "reference": "urn:uuid:f67ac10b-58cc-4372-a567-0e02b2c3d479"
                    }
                ],
                "status": "final",
                "section": [
                    {
                        "code": {
                            "coding": [
                                {
                                    "code": "4321000179101",
                                    "system": "http://snomed.info/sct",
                                    "display": "Hematology report"
                                }
                            ]
                        },
                        "entry": [
                            {
                                "type": "DiagnosticReport",
                                "reference": "DiagnosticReport/e0f2a04a-108d-416e-8d6d-3a5d75782ac6"
                            }
                        ],
                        "title": "Hematology report"
                    }
                ],
                "subject": {
                    "display": "Patient",
                    "reference": "urn:uuid:54c6b92e-086d-48ee-a718-2db3f941ae7b"
                },
                "language": "en-IN",
                "custodian": {
                    "display": "Iqline",
                    "reference": "urn:uuid:f57ac10b-58cc-4372-a567-0e02b2c3d479"
                },
                "identifier": {
                    "value": "6dff6109-ea34-4111-b6ae-49b8d2c59709",
                    "system": "https://ndhm.in/phr"
                },
                "resourceType": "Composition"
            }
        },
        {
            "fullUrl": "urn:uuid:54c6b92e-086d-48ee-a718-2db3f941ae7b",
            "resource": {
                "id": "54c6b92e-086d-48ee-a718-2db3f941ae7b",
                "meta": {
                    "profile": [
                        "https://nrces.in/ndhm/fhir/r4/StructureDefinition/Patient"
                    ],
                    "versionId": "1",
                    "lastUpdated": "2025-05-03T08:54:09.163+00:00"
                },
                "name": [
                    {
                        "text": "Deepesh Raj"
                    }
                ],
                "gender": "male",
                "telecom": [
                    {
                        "use": "home",
                        "value": "7003415402",
                        "system": "phone"
                    }
                ],
                "birthDate": "1996-08-04",
                "identifier": [
                    {
                        "type": {
                            "coding": [
                                {
                                    "code": "MR",
                                    "system": "http://terminology.hl7.org/CodeSystem/v2-0203",
                                    "display": "Medical record number"
                                }
                            ]
                        },
                        "value": "54c6b92e-086d-48ee-a718-2db3f941ae7b",
                        "system": "https://healthid.ndhm.gov.in"
                    }
                ],
                "resourceType": "Patient"
            }
        },
        {
            "fullUrl": "urn:uuid:f67ac10b-58cc-4372-a567-0e02b2c3d479",
            "resource": {
                "id": "f67ac10b-58cc-4372-a567-0e02b2c3d479",
                "meta": {
                    "profile": [
                        "https://nrces.in/ndhm/fhir/r4/StructureDefinition/Practitioner"
                    ],
                    "versionId": "1",
                    "lastUpdated": "2025-05-03T08:54:09.163+00:00"
                },
                "name": [
                    {
                        "text": "kaushlendra"
                    }
                ],
                "identifier": [
                    {
                        "type": {
                            "coding": [
                                {
                                    "code": "MD",
                                    "system": "http://terminology.hl7.org/CodeSystem/v2-0203",
                                    "display": "Medical License number"
                                }
                            ]
                        },
                        "value": "32893673879",
                        "system": "https://doctor.ndhm.gov.in"
                    }
                ],
                "resourceType": "Practitioner"
            }
        },
        {
            "fullUrl": "urn:uuid:f57ac10b-58cc-4372-a567-0e02b2c3d479",
            "resource": {
                "id": "f57ac10b-58cc-4372-a567-0e02b2c3d479",
                "meta": {
                    "profile": [
                        "https://nrces.in/ndhm/fhir/r4/StructureDefinition/Organization"
                    ]
                },
                "name": "Iqline",
                "telecom": [
                    {
                        "use": "work",
                        "value": "+91 243 2634 1278",
                        "system": "phone"
                    },
                    {
                        "use": "work",
                        "value": "info@iqline.co.in",
                        "system": "email"
                    }
                ],
                "identifier": [
                    {
                        "type": {
                            "coding": [
                                {
                                    "code": "PRN",
                                    "system": "http://terminology.hl7.org/CodeSystem/v2-0203",
                                    "display": "Provider number"
                                }
                            ]
                        },
                        "value": "39232493",
                        "system": "https://facility.ndhm.gov.in"
                    }
                ],
                "resourceType": "Organization"
            }
        },
        {
            "fullUrl": "DiagnosticReport/e0f2a04a-108d-416e-8d6d-3a5d75782ac6",
            "resource": {
                "id": "e0f2a04a-108d-416e-8d6d-3a5d75782ac6",
                "code": {
                    "coding": [
                        {
                            "code": "24325-3",
                            "system": "http://loinc.org",
                            "display": "Hep Func 2000 Pnl SerPl"
                        }
                    ]
                },
                "meta": {
                    "profile": [
                        "https://nrces.in/ndhm/fhir/r4/StructureDefinition/DiagnosticReportLab"
                    ],
                    "versionId": "1",
                    "lastUpdated": "2025-05-03T08:54:09.162+00:00"
                },
                "issued": "2025-05-03T08:54:09.162+00:00",
                "result": [
                    {
                        "display": "Albumin [Mass/volume] in Serum or Plasma",
                        "reference": "urn:uuid:Albumin [Mass/volume] in Serum or Plasma"
                    },
                    {
                        "display": "Bilirubin.total [Mass/volume] in Serum or Plasma",
                        "reference": "urn:uuid:Bilirubin.total [Mass/volume] in Serum or Plasma"
                    },
                    {
                        "display": "Bilirubin.direct [Mass/volume] in Serum or Plasma",
                        "reference": "urn:uuid:Bilirubin.direct [Mass/volume] in Serum or Plasma"
                    },
                    {
                        "display": "Alkaline phosphatase [Enzymatic activity/volume] in Serum or Plasma",
                        "reference": "urn:uuid:Alkaline phosphatase [Enzymatic activity/volume] in Serum or Plasma"
                    },
                    {
                        "display": "Aspartate aminotransferase [Enzymatic activity/volume] in Serum or Plasma",
                        "reference": "urn:uuid:Aspartate aminotransferase [Enzymatic activity/volume] in Serum or Plasma"
                    },
                    {
                        "display": "Alanine aminotransferase [Enzymatic activity/volume] in Serum or Plasma",
                        "reference": "urn:uuid:Alanine aminotransferase [Enzymatic activity/volume] in Serum or Plasma"
                    },
                    {
                        "display": "Protein [Mass/volume] in Serum or Plasma",
                        "reference": "urn:uuid:Protein [Mass/volume] in Serum or Plasma"
                    }
                ],
                "status": "final",
                "subject": {
                    "display": "Deepesh Raj",
                    "reference": "urn:uuid:54c6b92e-086d-48ee-a718-2db3f941ae7b"
                },
                "category": [
                    {
                        "coding": [
                            {
                                "code": "708196005",
                                "system": "http://snomed.info/sct",
                                "display": "Hematology service"
                            }
                        ]
                    }
                ],
                "specimen": [
                    {
                        "display": "Specimen",
                        "reference": "urn:uuid:3b73db96-24e4-4f9c-abbd-00c3e791bea5"
                    }
                ],
                "conclusion": "No conclusion",
                "identifier": [
                    {
                        "value": "49fedc5c-c73d-44a4-a7aa-2eb317f01579",
                        "system": "https://xyz.com/lab/reports"
                    }
                ],
                "resourceType": "DiagnosticReport",
                "presentedForm": [
                    {
                        "data": "",
                        "title": "Report",
                        "creation": "2025-05-03T08:54:09.162+00:00",
                        "language": "en-IN",
                        "contentType": "application/pdf"
                    }
                ],
                "resultsInterpreter": [
                    {
                        "display": "kaushlendra",
                        "reference": "urn:uuid:f67ac10b-58cc-4372-a567-0e02b2c3d479"
                    }
                ]
            }
        },
        {
            "fullUrl": "urn:uuid:Albumin [Mass/volume] in Serum or Plasma",
            "resource": {
                "id": "Albumin [Mass/volume] in Serum or Plasma",
                "code": {
                    "text": "Albumin [Mass/volume] in Serum or Plasma",
                    "coding": [
                        {
                            "code": "1751-7",
                            "system": "http://loinc.org",
                            "display": "Albumin [Mass/volume] in Serum or Plasma"
                        }
                    ]
                },
                "meta": {
                    "profile": [
                        "https://nrces.in/ndhm/fhir/r4/StructureDefinition/Observation"
                    ]
                },
                "status": "final",
                "subject": {
                    "display": "Patient",
                    "reference": "urn:uuid:54c6b92e-086d-48ee-a718-2db3f941ae7b"
                },
                "performer": [
                    {
                        "display": "Organization",
                        "reference": "urn:uuid:f57ac10b-58cc-4372-a567-0e02b2c3d479"
                    }
                ],
                "resourceType": "Observation",
                "valueQuantity": {
                    "code": "258797006",
                    "unit": "mg/dL",
                    "value": 3.98,
                    "system": "http://snomed.info/sct"
                },
                "referenceRange": [
                    {
                        "low": {
                            "code": "258797006",
                            "unit": "mg/dL",
                            "value": 3.5,
                            "system": "http://snomed.info/sct"
                        },
                        "high": {
                            "code": "258797006",
                            "unit": "mg/dL",
                            "value": 5.2,
                            "system": "http://snomed.info/sct"
                        }
                    }
                ],
                "effectiveDateTime": "2025-05-03T08:54:09.162+00:00"
            }
        },
        {
            "fullUrl": "urn:uuid:Bilirubin.total [Mass/volume] in Serum or Plasma",
            "resource": {
                "id": "Bilirubin.total [Mass/volume] in Serum or Plasma",
                "code": {
                    "text": "Bilirubin.total [Mass/volume] in Serum or Plasma",
                    "coding": [
                        {
                            "code": "1975-2",
                            "system": "http://loinc.org",
                            "display": "Bilirubin.total [Mass/volume] in Serum or Plasma"
                        }
                    ]
                },
                "meta": {
                    "profile": [
                        "https://nrces.in/ndhm/fhir/r4/StructureDefinition/Observation"
                    ]
                },
                "status": "final",
                "subject": {
                    "display": "Patient",
                    "reference": "urn:uuid:54c6b92e-086d-48ee-a718-2db3f941ae7b"
                },
                "performer": [
                    {
                        "display": "Organization",
                        "reference": "urn:uuid:f57ac10b-58cc-4372-a567-0e02b2c3d479"
                    }
                ],
                "resourceType": "Observation",
                "valueQuantity": {
                    "code": "258797006",
                    "unit": "mg/dL",
                    "value": 1.01,
                    "system": "http://snomed.info/sct"
                },
                "referenceRange": [
                    {
                        "low": {
                            "code": "258797006",
                            "unit": "mg/dL",
                            "value": 0,
                            "system": "http://snomed.info/sct"
                        },
                        "high": {
                            "code": "258797006",
                            "unit": "mg/dL",
                            "value": 100,
                            "system": "http://snomed.info/sct"
                        }
                    }
                ],
                "effectiveDateTime": "2025-05-03T08:54:09.162+00:00"
            }
        },
        {
            "fullUrl": "urn:uuid:Bilirubin.direct [Mass/volume] in Serum or Plasma",
            "resource": {
                "id": "Bilirubin.direct [Mass/volume] in Serum or Plasma",
                "code": {
                    "text": "Bilirubin.direct [Mass/volume] in Serum or Plasma",
                    "coding": [
                        {
                            "code": "1968-7",
                            "system": "http://loinc.org",
                            "display": "Bilirubin.direct [Mass/volume] in Serum or Plasma"
                        }
                    ]
                },
                "meta": {
                    "profile": [
                        "https://nrces.in/ndhm/fhir/r4/StructureDefinition/Observation"
                    ]
                },
                "status": "final",
                "subject": {
                    "display": "Patient",
                    "reference": "urn:uuid:54c6b92e-086d-48ee-a718-2db3f941ae7b"
                },
                "performer": [
                    {
                        "display": "Organization",
                        "reference": "urn:uuid:f57ac10b-58cc-4372-a567-0e02b2c3d479"
                    }
                ],
                "resourceType": "Observation",
                "valueQuantity": {
                    "code": "258797006",
                    "unit": "mg/dL",
                    "value": 0.01,
                    "system": "http://snomed.info/sct"
                },
                "referenceRange": [
                    {
                        "low": {
                            "code": "258797006",
                            "unit": "mg/dL",
                            "value": 0,
                            "system": "http://snomed.info/sct"
                        },
                        "high": {
                            "code": "258797006",
                            "unit": "mg/dL",
                            "value": 100,
                            "system": "http://snomed.info/sct"
                        }
                    }
                ],
                "effectiveDateTime": "2025-05-03T08:54:09.162+00:00"
            }
        },
        {
            "fullUrl": "urn:uuid:Alkaline phosphatase [Enzymatic activity/volume] in Serum or Plasma",
            "resource": {
                "id": "Alkaline phosphatase [Enzymatic activity/volume] in Serum or Plasma",
                "code": {
                    "text": "Alkaline phosphatase [Enzymatic activity/volume] in Serum or Plasma",
                    "coding": [
                        {
                            "code": "6768-6",
                            "system": "http://loinc.org",
                            "display": "Alkaline phosphatase [Enzymatic activity/volume] in Serum or Plasma"
                        }
                    ]
                },
                "meta": {
                    "profile": [
                        "https://nrces.in/ndhm/fhir/r4/StructureDefinition/Observation"
                    ]
                },
                "status": "final",
                "subject": {
                    "display": "Patient",
                    "reference": "urn:uuid:54c6b92e-086d-48ee-a718-2db3f941ae7b"
                },
                "performer": [
                    {
                        "display": "Organization",
                        "reference": "urn:uuid:f57ac10b-58cc-4372-a567-0e02b2c3d479"
                    }
                ],
                "resourceType": "Observation",
                "valueQuantity": {
                    "code": "258797006",
                    "unit": "mg/dL",
                    "value": 268.9,
                    "system": "http://snomed.info/sct"
                },
                "referenceRange": [
                    {
                        "low": {
                            "code": "258797006",
                            "unit": "mg/dL",
                            "value": 0,
                            "system": "http://snomed.info/sct"
                        },
                        "high": {
                            "code": "258797006",
                            "unit": "mg/dL",
                            "value": 100,
                            "system": "http://snomed.info/sct"
                        }
                    }
                ],
                "effectiveDateTime": "2025-05-03T08:54:09.162+00:00"
            }
        },
        {
            "fullUrl": "urn:uuid:Aspartate aminotransferase [Enzymatic activity/volume] in Serum or Plasma",
            "resource": {
                "id": "Aspartate aminotransferase [Enzymatic activity/volume] in Serum or Plasma",
                "code": {
                    "text": "Aspartate aminotransferase [Enzymatic activity/volume] in Serum or Plasma",
                    "coding": [
                        {
                            "code": "1920-8",
                            "system": "http://loinc.org",
                            "display": "Aspartate aminotransferase [Enzymatic activity/volume] in Serum or Plasma"
                        }
                    ]
                },
                "meta": {
                    "profile": [
                        "https://nrces.in/ndhm/fhir/r4/StructureDefinition/Observation"
                    ]
                },
                "status": "final",
                "subject": {
                    "display": "Patient",
                    "reference": "urn:uuid:54c6b92e-086d-48ee-a718-2db3f941ae7b"
                },
                "performer": [
                    {
                        "display": "Organization",
                        "reference": "urn:uuid:f57ac10b-58cc-4372-a567-0e02b2c3d479"
                    }
                ],
                "valueString": "Not Applicable",
                "resourceType": "Observation",
                "effectiveDateTime": "2025-05-03T08:54:09.162+00:00"
            }
        },
        {
            "fullUrl": "urn:uuid:Alanine aminotransferase [Enzymatic activity/volume] in Serum or Plasma",
            "resource": {
                "id": "Alanine aminotransferase [Enzymatic activity/volume] in Serum or Plasma",
                "code": {
                    "text": "Alanine aminotransferase [Enzymatic activity/volume] in Serum or Plasma",
                    "coding": [
                        {
                            "code": "1742-6",
                            "system": "http://loinc.org",
                            "display": "Alanine aminotransferase [Enzymatic activity/volume] in Serum or Plasma"
                        }
                    ]
                },
                "meta": {
                    "profile": [
                        "https://nrces.in/ndhm/fhir/r4/StructureDefinition/Observation"
                    ]
                },
                "status": "final",
                "subject": {
                    "display": "Patient",
                    "reference": "urn:uuid:54c6b92e-086d-48ee-a718-2db3f941ae7b"
                },
                "performer": [
                    {
                        "display": "Organization",
                        "reference": "urn:uuid:f57ac10b-58cc-4372-a567-0e02b2c3d479"
                    }
                ],
                "resourceType": "Observation",
                "valueQuantity": {
                    "code": "258797006",
                    "unit": "mg/dL",
                    "value": 35.5,
                    "system": "http://snomed.info/sct"
                },
                "referenceRange": [
                    {
                        "low": {
                            "code": "258797006",
                            "unit": "mg/dL",
                            "value": 0,
                            "system": "http://snomed.info/sct"
                        },
                        "high": {
                            "code": "258797006",
                            "unit": "mg/dL",
                            "value": 100,
                            "system": "http://snomed.info/sct"
                        }
                    }
                ],
                "effectiveDateTime": "2025-05-03T08:54:09.162+00:00"
            }
        },
        {
            "fullUrl": "urn:uuid:Protein [Mass/volume] in Serum or Plasma",
            "resource": {
                "id": "Protein [Mass/volume] in Serum or Plasma",
                "code": {
                    "text": "Protein [Mass/volume] in Serum or Plasma",
                    "coding": [
                        {
                            "code": "2885-2",
                            "system": "http://loinc.org",
                            "display": "Protein [Mass/volume] in Serum or Plasma"
                        }
                    ]
                },
                "meta": {
                    "profile": [
                        "https://nrces.in/ndhm/fhir/r4/StructureDefinition/Observation"
                    ]
                },
                "status": "final",
                "subject": {
                    "display": "Patient",
                    "reference": "urn:uuid:54c6b92e-086d-48ee-a718-2db3f941ae7b"
                },
                "performer": [
                    {
                        "display": "Organization",
                        "reference": "urn:uuid:f57ac10b-58cc-4372-a567-0e02b2c3d479"
                    }
                ],
                "resourceType": "Observation",
                "valueQuantity": {
                    "code": "258797006",
                    "unit": "mg/dL",
                    "value": 6.7,
                    "system": "http://snomed.info/sct"
                },
                "referenceRange": [
                    {
                        "low": {
                            "code": "258797006",
                            "unit": "mg/dL",
                            "value": 6,
                            "system": "http://snomed.info/sct"
                        },
                        "high": {
                            "code": "258797006",
                            "unit": "mg/dL",
                            "value": 7.8,
                            "system": "http://snomed.info/sct"
                        }
                    }
                ],
                "effectiveDateTime": "2025-05-03T08:54:09.162+00:00"
            }
        }
    ],
    "timestamp": "2025-05-03T08:54:09.162+00:00",
    "identifier": {
        "value": "464e1b08-d955-4e9d-a311-f9b79f496c6d",
        "system": "http://hip.in"
    },
    "resourceType": "Bundle"
}