{
  "resourceType" : "Bundle",
  "id" : "OPConsultNote-example-05",
  "meta" : {
    "versionId" : "1",
    "lastUpdated" : "2020-07-09T15:32:26.605+05:30",
    "profile" : ["https://nrces.in/ndhm/fhir/r4/StructureDefinition/DocumentBundle"],
    "security" : [{
      "system" : "http://terminology.hl7.org/CodeSystem/v3-Confidentiality",
      "code" : "V",
      "display" : "very restricted"
    }]
  },
  "identifier" : {
    "system" : "http://hip.in",
    "value" : "305fecc2-4ba2-46cc-9ccd-efa755aff51d"
  },
  "type" : "document",
  "timestamp" : "2020-07-09T15:32:26.605+05:30",
  "entry" : [{
    "fullUrl" : "urn:uuid:81af6dbe-4e44-4025-9c63-4e96d4c502c4",
    "resource" : {
      "resourceType" : "Composition",
      "id" : "81af6dbe-4e44-4025-9c63-4e96d4c502c4",
      "meta" : {
        "versionId" : "1",
        "lastUpdated" : "2020-07-09T15:32:26.605+05:30",
        "profile" : ["https://nrces.in/ndhm/fhir/r4/StructureDefinition/OPConsultRecord"]
      },
      "language" : "en-IN",
      "identifier" : {
        "system" : "https://ndhm.in/phr",
        "value" : "645bb0c3-ff7e-4123-bef5-3852a4784813"
      },
      "status" : "final",
      "type" : {
        "coding" : [{
          "system" : "http://snomed.info/sct",
          "code" : "371530004",
          "display" : "Clinical consultation report"
        }],
        "text" : "Clinical Consultation report"
      },
      "subject" : {
        "reference" : "urn:uuid:c1692255-4491-44b6-96e3-53f02ef2b324",
        "display" : "ABC"
      },
      "encounter" : {
        "reference" : "urn:uuid:f7f287fe-78f7-46ba-9fae-6cf955c1bb4e",
        "display" : "Encounter"
      },
      "date" : "2020-07-09T15:32:26.605+05:30",
      "author" : [{
        "reference" : "urn:uuid:95d3844d-a565-4dc0-b083-030eac6761df",
        "display" : "Dr. DEF"
      }],
      "title" : "Consultation Report",
      "custodian" : {
        "reference" : "urn:uuid:5e8c74ec-32cc-42b5-96c6-5d515f668358",
        "display" : "UVW Hospital"
      },
      "section" : [{
        "title" : "Chief complaints",
        "code" : {
          "coding" : [{
            "system" : "http://snomed.info/sct",
            "code" : "422843007",
            "display" : "Chief complaint section"
          }]
        },
        "entry" : [{
          "reference" : "urn:uuid:3dca8d88-8f3e-45b5-9aeb-9d0883bddb4e",
          "display" : "Condition"
        }]
      },
      {
        "title" : "Allergies",
        "code" : {
          "coding" : [{
            "system" : "http://snomed.info/sct",
            "code" : "722446000",
            "display" : "Allergy record"
          }]
        },
        "entry" : [{
          "reference" : "urn:uuid:7f8edbdc-7fcb-4249-ac97-a181ac0e0455",
          "display" : "AllergyIntolerance"
        }]
      },
      {
        "title" : "Medical History",
        "code" : {
          "coding" : [{
            "system" : "http://snomed.info/sct",
            "code" : "371529009",
            "display" : "History and physical report"
          }]
        },
        "entry" : [{
          "reference" : "urn:uuid:5e1787a6-180e-4dc3-acce-074754b7814c",
          "display" : "Condition"
        }]
      },
      {
        "title" : "Investigation Advice",
        "code" : {
          "coding" : [{
            "system" : "http://snomed.info/sct",
            "code" : "721963009",
            "display" : "Order document"
          }]
        },
        "entry" : [{
          "reference" : "urn:uuid:316db01d-f9be-4ec4-b7f9-9eded2cd72f7",
          "display" : "ServiceRequest"
        }]
      },
      {
        "title" : "Medications",
        "code" : {
          "coding" : [{
            "system" : "http://snomed.info/sct",
            "code" : "721912009",
            "display" : "Medication summary document"
          }]
        },
        "entry" : [{
          "reference" : "urn:uuid:d1cedf42-c335-4d56-bf99-c82ca16b517b",
          "display" : "MedicationStatement"
        },
        {
          "reference" : "urn:uuid:62a7ac0f-d700-4345-b312-acd8899fa232",
          "display" : "MedicationRequest"
        }]
      },
      {
        "title" : "Procedure",
        "code" : {
          "coding" : [{
            "system" : "http://snomed.info/sct",
            "code" : "371525003",
            "display" : "Clinical procedure report"
          }]
        },
        "entry" : [{
          "reference" : "urn:uuid:9d584fb3-c8d2-4b43-94cf-1da5383e05d8",
          "display" : "Procedure"
        }]
      },
      {
        "title" : "Follow Up",
        "code" : {
          "coding" : [{
            "system" : "http://snomed.info/sct",
            "code" : "736271009",
            "display" : "Outpatient care plan"
          }]
        },
        "entry" : [{
          "reference" : "urn:uuid:df774122-4e4f-4642-b5ee-1af3e435d63b",
          "display" : "Appointment"
        }]
      },
      {
        "title" : "Document Reference",
        "code" : {
          "coding" : [{
            "system" : "http://snomed.info/sct",
            "code" : "371530004",
            "display" : "Clinical consultation report"
          }]
        },
        "entry" : [{
          "reference" : "urn:uuid:f92b7828-07b2-4a87-a630-b0f5d2613ebc",
          "display" : "DocumentReference"
        }]
      }]
    }
  },
  {
    "fullUrl" : "urn:uuid:95d3844d-a565-4dc0-b083-030eac6761df",
    "resource" : {
      "resourceType" : "Practitioner",
      "id" : "95d3844d-a565-4dc0-b083-030eac6761df",
      "meta" : {
        "versionId" : "1",
        "lastUpdated" : "2020-07-09T15:32:26.605+05:30",
        "profile" : ["https://nrces.in/ndhm/fhir/r4/StructureDefinition/Practitioner"]
      },
      "identifier" : [{
        "type" : {
          "coding" : [{
            "system" : "http://terminology.hl7.org/CodeSystem/v2-0203",
            "code" : "MD",
            "display" : "Medical License number"
          }]
        },
        "system" : "https://doctor.ndhm.gov.in",
        "value" : "21-1521-3828-3227"
      }],
      "name" : [{
        "text" : "Dr. DEF"
      }]
    }
  },
  {
    "fullUrl" : "urn:uuid:5e8c74ec-32cc-42b5-96c6-5d515f668358",
    "resource" : {
      "resourceType" : "Organization",
      "id" : "5e8c74ec-32cc-42b5-96c6-5d515f668358",
      "meta" : {
        "profile" : ["https://nrces.in/ndhm/fhir/r4/StructureDefinition/Organization"]
      },
      "identifier" : [{
        "type" : {
          "coding" : [{
            "system" : "http://terminology.hl7.org/CodeSystem/v2-0203",
            "code" : "PRN",
            "display" : "Provider number"
          }]
        },
        "system" : "https://facility.ndhm.gov.in",
        "value" : "4567823"
      }],
      "name" : "UVW Hospital",
      "telecom" : [{
        "system" : "phone",
        "value" : "+91 273 2139 3632",
        "use" : "work"
      },
      {
        "system" : "email",
        "value" : "contact@facility.uvw.org",
        "use" : "work"
      }]
    }
  },
  {
    "fullUrl" : "urn:uuid:c1692255-4491-44b6-96e3-53f02ef2b324",
    "resource" : {
      "resourceType" : "Patient",
      "id" : "c1692255-4491-44b6-96e3-53f02ef2b324",
      "meta" : {
        "versionId" : "1",
        "lastUpdated" : "2020-07-09T14:58:58.181+05:30",
        "profile" : ["https://nrces.in/ndhm/fhir/r4/StructureDefinition/Patient"]
      },
      "identifier" : [{
        "type" : {
          "coding" : [{
            "system" : "http://terminology.hl7.org/CodeSystem/v2-0203",
            "code" : "MR",
            "display" : "Medical record number"
          }]
        },
        "system" : "https://healthid.ndhm.gov.in",
        "value" : "22-7225-4829-5255"
      }],
      "name" : [{
        "text" : "ABC"
      }],
      "telecom" : [{
        "system" : "phone",
        "value" : "+919818512600",
        "use" : "home"
      }],
      "gender" : "male",
      "birthDate" : "1981-01-12"
    }
  },
  {
    "fullUrl" : "urn:uuid:f7f287fe-78f7-46ba-9fae-6cf955c1bb4e",
    "resource" : {
      "resourceType" : "Encounter",
      "id" : "f7f287fe-78f7-46ba-9fae-6cf955c1bb4e",
      "meta" : {
        "lastUpdated" : "2020-07-09T14:58:58.181+05:30",
        "profile" : ["https://nrces.in/ndhm/fhir/r4/StructureDefinition/Encounter"]
      },
      "identifier" : [{
        "system" : "https://ndhm.in",
        "value" : "S100"
      }],
      "status" : "finished",
      "class" : {
        "system" : "http://terminology.hl7.org/CodeSystem/v3-ActCode",
        "code" : "AMB",
        "display" : "ambulatory"
      },
      "subject" : {
        "reference" : "urn:uuid:c1692255-4491-44b6-96e3-53f02ef2b324",
        "display" : "Patient"
      },
      "period" : {
        "start" : "2020-07-09T14:58:58.181+05:30"
      },
      "diagnosis" : [{
        "condition" : {
          "reference" : "urn:uuid:3dca8d88-8f3e-45b5-9aeb-9d0883bddb4e",
          "display" : "Condition"
        },
        "use" : {
          "coding" : [{
            "system" : "http://snomed.info/sct",
            "code" : "39154008",
            "display" : "Clinical diagnosis"
          }]
        }
      },
      {
        "condition" : {
          "reference" : "urn:uuid:734a751d-7e90-46a4-aaaf-793cdbe3a365",
          "display" : "Condition"
        },
        "use" : {
          "coding" : [{
            "system" : "http://snomed.info/sct",
            "code" : "148006",
            "display" : "Preliminary diagnosis"
          }]
        }
      }]
    }
  },
  {
    "fullUrl" : "urn:uuid:7f8edbdc-7fcb-4249-ac97-a181ac0e0455",
    "resource" : {
      "resourceType" : "AllergyIntolerance",
      "id" : "7f8edbdc-7fcb-4249-ac97-a181ac0e0455",
      "meta" : {
        "profile" : ["https://nrces.in/ndhm/fhir/r4/StructureDefinition/AllergyIntolerance"]
      },
      "clinicalStatus" : {
        "coding" : [{
          "system" : "http://terminology.hl7.org/CodeSystem/allergyintolerance-clinical",
          "code" : "active",
          "display" : "Active"
        }]
      },
      "verificationStatus" : {
        "coding" : [{
          "system" : "http://terminology.hl7.org/CodeSystem/allergyintolerance-verification",
          "code" : "confirmed",
          "display" : "Confirmed"
        }]
      },
      "code" : {
        "coding" : [{
          "system" : "http://snomed.info/sct",
          "code" : "716186003",
          "display" : "No known allergy"
        }],
        "text" : "NKA"
      },
      "patient" : {
        "reference" : "urn:uuid:c1692255-4491-44b6-96e3-53f02ef2b324",
        "display" : "Patient"
      },
      "recordedDate" : "2020-07-09T15:37:31-06:00",
      "recorder" : {
        "reference" : "urn:uuid:95d3844d-a565-4dc0-b083-030eac6761df",
        "display" : "Practitioner"
      },
      "note" : [{
        "text" : "The patient reports no other known allergy."
      }]
    }
  },
  {
    "fullUrl" : "urn:uuid:df774122-4e4f-4642-b5ee-1af3e435d63b",
    "resource" : {
      "resourceType" : "Appointment",
      "id" : "df774122-4e4f-4642-b5ee-1af3e435d63b",
      "meta" : {
        "profile" : ["https://nrces.in/ndhm/fhir/r4/StructureDefinition/Appointment"]
      },
      "status" : "booked",
      "serviceCategory" : [{
        "coding" : [{
          "system" : "http://snomed.info/sct",
          "code" : "408443003",
          "display" : "General medical practice"
        }]
      }],
      "serviceType" : [{
        "coding" : [{
          "system" : "http://snomed.info/sct",
          "code" : "11429006",
          "display" : "Consultation"
        }]
      }],
      "appointmentType" : {
        "coding" : [{
          "system" : "http://snomed.info/sct",
          "code" : "185389009",
          "display" : "Follow-up visit"
        }]
      },
      "reasonReference" : [{
        "reference" : "urn:uuid:3dca8d88-8f3e-45b5-9aeb-9d0883bddb4e",
        "display" : "Condition"
      }],
      "description" : "Discussion on the results of your recent Lab Test and further consultation",
      "start" : "2020-07-12T09:00:00Z",
      "end" : "2020-07-12T09:30:00Z",
      "created" : "2020-07-09T14:58:58.181+05:30",
      "basedOn" : [{
        "reference" : "urn:uuid:316db01d-f9be-4ec4-b7f9-9eded2cd72f7",
        "display" : "ServiceRequest"
      }],
      "participant" : [{
        "actor" : {
          "reference" : "urn:uuid:c1692255-4491-44b6-96e3-53f02ef2b324",
          "display" : "Patient"
        },
        "status" : "accepted"
      },
      {
        "actor" : {
          "reference" : "urn:uuid:95d3844d-a565-4dc0-b083-030eac6761df",
          "display" : "Practitioner"
        },
        "status" : "accepted"
      }]
    }
  },
  {
    "fullUrl" : "urn:uuid:3dca8d88-8f3e-45b5-9aeb-9d0883bddb4e",
    "resource" : {
      "resourceType" : "Condition",
      "id" : "3dca8d88-8f3e-45b5-9aeb-9d0883bddb4e",
      "meta" : {
        "profile" : ["https://nrces.in/ndhm/fhir/r4/StructureDefinition/Condition"]
      },
      "clinicalStatus" : {
        "coding" : [{
          "system" : "http://terminology.hl7.org/CodeSystem/condition-clinical",
          "code" : "active",
          "display" : "Active"
        }]
      },
      "code" : {
        "coding" : [{
          "system" : "http://snomed.info/sct",
          "code" : "297142003",
          "display" : "Foot swelling"
        }],
        "text" : "Foot swelling"
      },
      "subject" : {
        "reference" : "urn:uuid:c1692255-4491-44b6-96e3-53f02ef2b324",
        "display" : "Patient"
      }
    }
  },
  {
    "fullUrl" : "urn:uuid:5e1787a6-180e-4dc3-acce-074754b7814c",
    "resource" : {
      "resourceType" : "Condition",
      "id" : "5e1787a6-180e-4dc3-acce-074754b7814c",
      "meta" : {
        "profile" : ["https://nrces.in/ndhm/fhir/r4/StructureDefinition/Condition"]
      },
      "clinicalStatus" : {
        "coding" : [{
          "system" : "http://terminology.hl7.org/CodeSystem/condition-clinical",
          "code" : "recurrence",
          "display" : "Recurrence"
        }]
      },
      "code" : {
        "coding" : [{
          "system" : "http://snomed.info/sct",
          "code" : "46635009",
          "display" : "Diabetes mellitus type 1"
        }],
        "text" : "Diabetes mellitus type 1"
      },
      "subject" : {
        "reference" : "urn:uuid:c1692255-4491-44b6-96e3-53f02ef2b324",
        "display" : "Patient"
      }
    }
  },
  {
    "fullUrl" : "urn:uuid:734a751d-7e90-46a4-aaaf-793cdbe3a365",
    "resource" : {
      "resourceType" : "Condition",
      "id" : "734a751d-7e90-46a4-aaaf-793cdbe3a365",
      "meta" : {
        "profile" : ["https://nrces.in/ndhm/fhir/r4/StructureDefinition/Condition"]
      },
      "clinicalStatus" : {
        "coding" : [{
          "system" : "http://terminology.hl7.org/CodeSystem/condition-clinical",
          "code" : "recurrence",
          "display" : "Recurrence"
        }]
      },
      "code" : {
        "coding" : [{
          "system" : "http://snomed.info/sct",
          "code" : "44054006",
          "display" : "Diabetes mellitus type 2"
        }],
        "text" : "Diabetes mellitus type 2"
      },
      "subject" : {
        "reference" : "urn:uuid:c1692255-4491-44b6-96e3-53f02ef2b324",
        "display" : "Patient"
      }
    }
  },
  {
    "fullUrl" : "urn:uuid:9d584fb3-c8d2-4b43-94cf-1da5383e05d8",
    "resource" : {
      "resourceType" : "Procedure",
      "id" : "9d584fb3-c8d2-4b43-94cf-1da5383e05d8",
      "meta" : {
        "profile" : ["https://nrces.in/ndhm/fhir/r4/StructureDefinition/Procedure"]
      },
      "status" : "completed",
      "code" : {
        "coding" : [{
          "system" : "http://snomed.info/sct",
          "code" : "713130008",
          "display" : "Assessment of diabetic foot ulcer"
        }],
        "text" : "Assessment of diabetic foot ulcer"
      },
      "subject" : {
        "reference" : "urn:uuid:c1692255-4491-44b6-96e3-53f02ef2b324",
        "display" : "Patient"
      },
      "performedDateTime" : "2019-05-12",
      "followUp" : [{
        "coding" : [{
          "system" : "http://snomed.info/sct",
          "code" : "394725008",
          "display" : "Diabetes medication review"
        }]
      }]
    }
  },
  {
    "fullUrl" : "urn:uuid:316db01d-f9be-4ec4-b7f9-9eded2cd72f7",
    "resource" : {
      "resourceType" : "ServiceRequest",
      "id" : "316db01d-f9be-4ec4-b7f9-9eded2cd72f7",
      "meta" : {
        "profile" : ["https://nrces.in/ndhm/fhir/r4/StructureDefinition/ServiceRequest"]
      },
      "status" : "active",
      "intent" : "order",
      "category" : [{
        "coding" : [{
          "system" : "http://snomed.info/sct",
          "code" : "108252007",
          "display" : "Laboratory procedure"
        }]
      }],
      "code" : {
        "coding" : [{
          "system" : "http://snomed.info/sct",
          "code" : "252150008",
          "display" : "Fasting lipid profile"
        }],
        "text" : "Fasting lipid profile"
      },
      "subject" : {
        "reference" : "urn:uuid:c1692255-4491-44b6-96e3-53f02ef2b324",
        "display" : "Patient"
      },
      "authoredOn" : "2020-07-09T15:32:26.605+05:30",
      "requester" : {
        "reference" : "urn:uuid:95d3844d-a565-4dc0-b083-030eac6761df",
        "display" : "Dr. DEF"
      }
    }
  },
  {
    "fullUrl" : "urn:uuid:d1cedf42-c335-4d56-bf99-c82ca16b517b",
    "resource" : {
      "resourceType" : "MedicationStatement",
      "id" : "d1cedf42-c335-4d56-bf99-c82ca16b517b",
      "meta" : {
        "profile" : ["https://nrces.in/ndhm/fhir/r4/StructureDefinition/MedicationStatement"]
      },
      "status" : "completed",
      "medicationCodeableConcept" : {
        "coding" : [{
          "system" : "http://snomed.info/sct",
          "code" : "134463001",
          "display" : "Telmisartan 20 mg oral tablet"
        }]
      },
      "subject" : {
        "reference" : "urn:uuid:c1692255-4491-44b6-96e3-53f02ef2b324",
        "display" : "Patient"
      },
      "dateAsserted" : "2020-02-02T14:58:58.181+05:30"
    }
  },
  {
    "fullUrl" : "urn:uuid:62a7ac0f-d700-4345-b312-acd8899fa232",
    "resource" : {
      "resourceType" : "MedicationRequest",
      "id" : "62a7ac0f-d700-4345-b312-acd8899fa232",
      "meta" : {
        "profile" : ["https://nrces.in/ndhm/fhir/r4/StructureDefinition/MedicationRequest"]
      },
      "status" : "active",
      "intent" : "order",
      "medicationCodeableConcept" : {
        "coding" : [{
          "system" : "http://snomed.info/sct",
          "code" : "353231006",
          "display" : "Neomycin 5 mg/g cutaneous ointment"
        }]
      },
      "subject" : {
        "reference" : "urn:uuid:c1692255-4491-44b6-96e3-53f02ef2b324",
        "display" : "ABC"
      },
      "authoredOn" : "2020-07-09",
      "requester" : {
        "reference" : "urn:uuid:95d3844d-a565-4dc0-b083-030eac6761df",
        "display" : "Dr. DEF"
      },
      "reasonReference" : [{
        "reference" : "urn:uuid:3dca8d88-8f3e-45b5-9aeb-9d0883bddb4e",
        "display" : "Condition"
      }],
      "dosageInstruction" : [{
        "additionalInstruction" : [{
          "coding" : [{
            "system" : "http://snomed.info/sct",
            "code" : "229799001",
            "display" : "Twice a day"
          }]
        }],
        "route" : {
          "coding" : [{
            "system" : "http://snomed.info/sct",
            "code" : "6064005",
            "display" : "Topical route"
          }]
        }
      }]
    }
  },
  {
    "fullUrl" : "urn:uuid:f92b7828-07b2-4a87-a630-b0f5d2613ebc",
    "resource" : {
      "resourceType" : "DocumentReference",
      "id" : "f92b7828-07b2-4a87-a630-b0f5d2613ebc",
      "meta" : {
        "profile" : ["https://nrces.in/ndhm/fhir/r4/StructureDefinition/DocumentReference"]
      },
      "status" : "current",
      "docStatus" : "final",
      "type" : {
        "coding" : [{
          "system" : "http://snomed.info/sct",
          "code" : "4241000179101",
          "display" : "Laboratory report"
        }],
        "text" : "Laboratory report"
      },
      "subject" : {
        "reference" : "urn:uuid:c1692255-4491-44b6-96e3-53f02ef2b324",
        "display" : "Patient"
      },
      "content" : [{
        "attachment" : {
          "contentType" : "application/pdf",
          "language" : "en-IN",
          "data" : "some-base-64-encoded-string",
          "title" : "Laboratory report",
          "creation" : "2019-05-29T14:58:58.181+05:30"
        }
      }]
    }
  }],
  "signature" : {
    "type" : [{
      "system" : "urn:iso-astm:E1762-95:2013",
      "code" : "1.2.840.10065.1.12.1.1",
      "display" : "Author's Signature"
    }],
    "when" : "2020-07-09T07:42:33+10:00",
    "who" : {
      "reference" : "urn:uuid:95d3844d-a565-4dc0-b083-030eac6761df",
      "display" : "Practitioner"
    },
    "sigFormat" : "image/jpeg",
    "data" : "some-base-64-encoded-string"
  }
}