{
  "resourceType" : "Bundle",
  "id" : "HealthDocumentRecord-example-01",
  "meta" : {
    "versionId" : "1",
    "lastUpdated" : "2020-07-09T15:32:26.605+05:30",
    "profile" : ["https://nrces.in/ndhm/fhir/r4/StructureDefinition/DocumentBundle"],
    "security" : [{
      "system" : "http://terminology.hl7.org/CodeSystem/v3-Confidentiality",
      "code" : "V",
      "display" : "very restricted"
    }]
  },
  "identifier" : {
    "system" : "http://hip.in",
    "value" : "305fecc2-4ba2-46cc-9ccd-efa755aff51d"
  },
  "type" : "document",
  "timestamp" : "2020-07-09T15:32:26.605+05:30",
  "entry" : [{
    "fullUrl" : "urn:uuid:1ece26b3-85e9-4c59-8511-88394a44b463",
    "resource" : {
      "resourceType" : "Composition",
      "id" : "1ece26b3-85e9-4c59-8511-88394a44b463",
      "meta" : {
        "versionId" : "1",
        "lastUpdated" : "2020-07-09T15:32:26.605+05:30",
        "profile" : ["https://nrces.in/ndhm/fhir/r4/StructureDefinition/HealthDocumentRecord"]
      },
      "language" : "en-IN",
      "identifier" : {
        "system" : "https://ndhm.in/phr",
        "value" : "645bb0c3-ff7e-4123-bef5-3852a4784813"
      },
      "status" : "final",
      "type" : {
        "coding" : [{
          "system" : "http://snomed.info/sct",
          "code" : "419891008",
          "display" : "Record artifact"
        }],
        "text" : "Record artifact"
      },
      "subject" : {
        "reference" : "urn:uuid:5ef0135d-6be5-44a2-ac02-50b860c1d0fa",
        "display" : "ABC"
      },
      "date" : "2020-07-09T15:32:26.605+05:30",
      "author" : [{
        "reference" : "urn:uuid:845539b1-5a7c-42b3-b8f1-ec702d8081a7",
        "display" : "Dr. DEF"
      }],
      "title" : "Health Document",
      "section" : [{
        "title" : "Health Document",
        "entry" : [{
          "reference" : "urn:uuid:53a3a14f-7e81-4840-bccd-4fa26c3fad18",
          "display" : "DocumentReference"
        }]
      }]
    }
  },
  {
    "fullUrl" : "urn:uuid:845539b1-5a7c-42b3-b8f1-ec702d8081a7",
    "resource" : {
      "resourceType" : "Practitioner",
      "id" : "845539b1-5a7c-42b3-b8f1-ec702d8081a7",
      "meta" : {
        "versionId" : "1",
        "lastUpdated" : "2020-07-09T15:32:26.605+05:30",
        "profile" : ["https://nrces.in/ndhm/fhir/r4/StructureDefinition/Practitioner"]
      },
      "identifier" : [{
        "type" : {
          "coding" : [{
            "system" : "http://terminology.hl7.org/CodeSystem/v2-0203",
            "code" : "MD",
            "display" : "Medical License number"
          }]
        },
        "system" : "https://doctor.ndhm.gov.in",
        "value" : "21-1521-3828-3227"
      }],
      "name" : [{
        "text" : "Dr. DEF"
      }]
    }
  },
  {
    "fullUrl" : "urn:uuid:5ef0135d-6be5-44a2-ac02-50b860c1d0fa",
    "resource" : {
      "resourceType" : "Patient",
      "id" : "5ef0135d-6be5-44a2-ac02-50b860c1d0fa",
      "meta" : {
        "versionId" : "1",
        "lastUpdated" : "2020-07-09T14:58:58.181+05:30",
        "profile" : ["https://nrces.in/ndhm/fhir/r4/StructureDefinition/Patient"]
      },
      "identifier" : [{
        "type" : {
          "coding" : [{
            "system" : "http://terminology.hl7.org/CodeSystem/v2-0203",
            "code" : "MR",
            "display" : "Medical record number"
          }]
        },
        "system" : "https://healthid.ndhm.gov.in",
        "value" : "22-7225-4829-5255"
      }],
      "name" : [{
        "text" : "ABC"
      }],
      "telecom" : [{
        "system" : "phone",
        "value" : "+919818512600",
        "use" : "home"
      }],
      "gender" : "male",
      "birthDate" : "1981-01-12"
    }
  },
  {
    "fullUrl" : "urn:uuid:53a3a14f-7e81-4840-bccd-4fa26c3fad18",
    "resource" : {
      "resourceType" : "DocumentReference",
      "id" : "53a3a14f-7e81-4840-bccd-4fa26c3fad18",
      "meta" : {
        "profile" : ["https://nrces.in/ndhm/fhir/r4/StructureDefinition/DocumentReference"]
      },
      "status" : "current",
      "docStatus" : "final",
      "type" : {
        "text" : "Wellness Record"
      },
      "subject" : {
        "reference" : "urn:uuid:5ef0135d-6be5-44a2-ac02-50b860c1d0fa",
        "display" : "Patient"
      },
      "content" : [{
        "attachment" : {
          "contentType" : "application/pdf",
          "language" : "en-IN",
          "data" : "some-base-64",
          "title" : "Laboratory report",
          "creation" : "2019-05-29T14:58:58.181+05:30"
        }
      }]
    }
  }],
  "signature" : {
    "type" : [{
      "system" : "urn:iso-astm:E1762-95:2013",
      "code" : "1.2.840.10065.1.12.1.1",
      "display" : "Author's Signature"
    }],
    "when" : "2020-07-09T07:42:33+10:00",
    "who" : {
      "reference" : "urn:uuid:845539b1-5a7c-42b3-b8f1-ec702d8081a7",
      "display" : "Practitioner"
    },
    "sigFormat" : "image/jpeg",
    "data" : "some-base-64"
  }
}