{
  "resourceType" : "Bundle",
  "id" : "ImmunizationRecord-example-07",
  "meta" : {
    "versionId" : "1",
    "lastUpdated" : "2020-07-09T15:32:26.605+05:30",
    "profile" : ["https://nrces.in/ndhm/fhir/r4/StructureDefinition/DocumentBundle"],
    "security" : [{
      "system" : "http://terminology.hl7.org/CodeSystem/v3-Confidentiality",
      "code" : "V",
      "display" : "very restricted"
    }]
  },
  "identifier" : {
    "system" : "http://hip.in",
    "value" : "305fecc2-4ba2-46cc-9ccd-efa755aff51d"
  },
  "type" : "document",
  "timestamp" : "2020-07-09T15:32:26.605+05:30",
  "entry" : [{
    "fullUrl" : "urn:uuid:5d28ad3d-4c0d-430f-9eb6-ffee24753a82",
    "resource" : {
      "resourceType" : "Composition",
      "id" : "5d28ad3d-4c0d-430f-9eb6-ffee24753a82",
      "meta" : {
        "versionId" : "1",
        "lastUpdated" : "2020-07-09T15:32:26.605+05:30",
        "profile" : ["https://nrces.in/ndhm/fhir/r4/StructureDefinition/ImmunizationRecord"]
      },
      "language" : "en-IN",
      "identifier" : {
        "system" : "https://ndhm.in/phr",
        "value" : "645bb0c3-ff7e-4123-bef5-3852a4784813"
      },
      "status" : "final",
      "type" : {
        "coding" : [{
          "system" : "http://snomed.info/sct",
          "code" : "41000179103",
          "display" : "Immunization record"
        }],
        "text" : "Immunization record"
      },
      "subject" : {
        "reference" : "urn:uuid:70485142-1f8e-4370-8484-08c8a570e4ae",
        "display" : "ABC"
      },
      "date" : "2020-07-09T15:32:26.605+05:30",
      "author" : [{
        "reference" : "urn:uuid:42194533-0f56-453b-bb4c-52000cbcf7fd",
        "display" : "Dr. DEF"
      }],
      "title" : "Immunization record",
      "custodian" : {
        "reference" : "urn:uuid:eaec0c69-7a8a-40c5-a903-d54c8e6f1e0f",
        "display" : "UVW Hospital"
      },
      "section" : [{
        "title" : "Immunization record",
        "code" : {
          "coding" : [{
            "system" : "http://snomed.info/sct",
            "code" : "41000179103",
            "display" : "Immunization record"
          }]
        },
        "entry" : [{
          "reference" : "urn:uuid:2da4b48a-96e6-4995-a67b-1b40d2b8b17c",
          "type" : "Immunization"
        },
        {
          "reference" : "urn:uuid:efa59949-0180-4841-a532-ece753cdb49d",
          "type" : "ImmunizationRecommendation"
        },
        {
          "reference" : "urn:uuid:306ce079-da45-4a07-9529-0fe2a9471288",
          "type" : "DocumentReference"
        }]
      }]
    }
  },
  {
    "fullUrl" : "urn:uuid:42194533-0f56-453b-bb4c-52000cbcf7fd",
    "resource" : {
      "resourceType" : "Practitioner",
      "id" : "42194533-0f56-453b-bb4c-52000cbcf7fd",
      "meta" : {
        "versionId" : "1",
        "lastUpdated" : "2020-07-09T15:32:26.605+05:30",
        "profile" : ["https://nrces.in/ndhm/fhir/r4/StructureDefinition/Practitioner"]
      },
      "identifier" : [{
        "type" : {
          "coding" : [{
            "system" : "http://terminology.hl7.org/CodeSystem/v2-0203",
            "code" : "MD",
            "display" : "Medical License number"
          }]
        },
        "system" : "https://doctor.ndhm.gov.in",
        "value" : "21-1521-3828-3227"
      }],
      "name" : [{
        "text" : "Dr. DEF"
      }]
    }
  },
  {
    "fullUrl" : "urn:uuid:eaec0c69-7a8a-40c5-a903-d54c8e6f1e0f",
    "resource" : {
      "resourceType" : "Organization",
      "id" : "eaec0c69-7a8a-40c5-a903-d54c8e6f1e0f",
      "meta" : {
        "profile" : ["https://nrces.in/ndhm/fhir/r4/StructureDefinition/Organization"]
      },
      "identifier" : [{
        "type" : {
          "coding" : [{
            "system" : "http://terminology.hl7.org/CodeSystem/v2-0203",
            "code" : "PRN",
            "display" : "Provider number"
          }]
        },
        "system" : "https://facility.ndhm.gov.in",
        "value" : "4567823"
      }],
      "name" : "UVW Hospital",
      "telecom" : [{
        "system" : "phone",
        "value" : "+91 273 2139 3632",
        "use" : "work"
      },
      {
        "system" : "email",
        "value" : "contact@facility.uvw.org",
        "use" : "work"
      }]
    }
  },
  {
    "fullUrl" : "urn:uuid:70485142-1f8e-4370-8484-08c8a570e4ae",
    "resource" : {
      "resourceType" : "Patient",
      "id" : "70485142-1f8e-4370-8484-08c8a570e4ae",
      "meta" : {
        "versionId" : "1",
        "lastUpdated" : "2020-07-09T14:58:58.181+05:30",
        "profile" : ["https://nrces.in/ndhm/fhir/r4/StructureDefinition/Patient"]
      },
      "identifier" : [{
        "type" : {
          "coding" : [{
            "system" : "http://terminology.hl7.org/CodeSystem/v2-0203",
            "code" : "MR",
            "display" : "Medical record number"
          }]
        },
        "system" : "https://healthid.ndhm.gov.in",
        "value" : "22-7225-4829-5255"
      }],
      "name" : [{
        "text" : "ABC"
      }],
      "telecom" : [{
        "system" : "phone",
        "value" : "+919818512600",
        "use" : "home"
      }],
      "gender" : "male",
      "birthDate" : "1981-01-12"
    }
  },
  {
    "fullUrl" : "urn:uuid:2da4b48a-96e6-4995-a67b-1b40d2b8b17c",
    "resource" : {
      "resourceType" : "Immunization",
      "id" : "2da4b48a-96e6-4995-a67b-1b40d2b8b17c",
      "meta" : {
        "versionId" : "1",
        "lastUpdated" : "2020-10-10T14:58:58.181+05:30",
        "profile" : ["https://nrces.in/ndhm/fhir/r4/StructureDefinition/Immunization"]
      },
      "status" : "completed",
      "vaccineCode" : {
        "coding" : [{
          "system" : "http://snomed.info/sct",
          "code" : "1119305005",
          "display" : "COVID-19 antigen vaccine"
        }]
      },
      "patient" : {
        "reference" : "urn:uuid:70485142-1f8e-4370-8484-08c8a570e4ae",
        "display" : "Patient"
      },
      "occurrenceDateTime" : "2021-02-21",
      "primarySource" : true,
      "lotNumber" : "BSCD12344SS"
    }
  },
  {
    "fullUrl" : "urn:uuid:efa59949-0180-4841-a532-ece753cdb49d",
    "resource" : {
      "resourceType" : "ImmunizationRecommendation",
      "id" : "efa59949-0180-4841-a532-ece753cdb49d",
      "meta" : {
        "profile" : ["https://nrces.in/ndhm/fhir/r4/StructureDefinition/ImmunizationRecommendation"]
      },
      "patient" : {
        "reference" : "urn:uuid:70485142-1f8e-4370-8484-08c8a570e4ae",
        "display" : "Patient"
      },
      "date" : "2021-02-21T11:04:15.817-05:00",
      "authority" : {
        "reference" : "urn:uuid:eaec0c69-7a8a-40c5-a903-d54c8e6f1e0f"
      },
      "recommendation" : [{
        "vaccineCode" : [{
          "coding" : [{
            "system" : "http://snomed.info/sct",
            "code" : "1119305005",
            "display" : "COVID-19 antigen vaccine"
          }]
        }],
        "forecastStatus" : {
          "coding" : [{
            "system" : "http://terminology.hl7.org/CodeSystem/immunization-recommendation-status",
            "code" : "due",
            "display" : "Due"
          }]
        },
        "dateCriterion" : [{
          "code" : {
            "coding" : [{
              "system" : "http://loinc.org",
              "code" : "30980-7",
              "display" : "Date vaccine due"
            }]
          },
          "value" : "2021-03-22T00:00:00-05:00"
        }],
        "description" : "Second sequence in protocol",
        "series" : "Vaccination Series 2",
        "doseNumberPositiveInt" : 1,
        "seriesDosesPositiveInt" : 2,
        "supportingImmunization" : [{
          "reference" : "urn:uuid:2da4b48a-96e6-4995-a67b-1b40d2b8b17c",
          "display" : "Immunization"
        }]
      }]
    }
  },
  {
    "fullUrl" : "urn:uuid:306ce079-da45-4a07-9529-0fe2a9471288",
    "resource" : {
      "resourceType" : "DocumentReference",
      "id" : "306ce079-da45-4a07-9529-0fe2a9471288",
      "meta" : {
        "profile" : ["https://nrces.in/ndhm/fhir/r4/StructureDefinition/DocumentReference"]
      },
      "status" : "current",
      "docStatus" : "final",
      "type" : {
        "coding" : [{
          "system" : "http://snomed.info/sct",
          "code" : "4241000179101",
          "display" : "Laboratory report"
        }],
        "text" : "Laboratory report"
      },
      "subject" : {
        "reference" : "urn:uuid:70485142-1f8e-4370-8484-08c8a570e4ae",
        "display" : "Patient"
      },
      "content" : [{
        "attachment" : {
          "contentType" : "application/pdf",
          "language" : "en-IN",
          "data" : "some-base-64",
          "title" : "Laboratory report",
          "creation" : "2019-05-29T14:58:58.181+05:30"
        }
      }]
    }
  }],
  "signature" : {
    "type" : [{
      "system" : "urn:iso-astm:E1762-95:2013",
      "code" : "1.2.840.10065.1.12.1.1",
      "display" : "Author's Signature"
    }],
    "when" : "2020-07-09T07:42:33+10:00",
    "who" : {
      "reference" : "urn:uuid:42194533-0f56-453b-bb4c-52000cbcf7fd",
      "display" : "Practitioner"
    },
    "sigFormat" : "image/jpeg",
    "data" : "some-jpeg"
  }
}