{
  "resourceType" : "Bundle",
  "id" : "Prescription-example-06",
  "meta" : {
    "versionId" : "1",
    "lastUpdated" : "2020-07-09T15:32:26.605+05:30",
    "profile" : ["https://nrces.in/ndhm/fhir/r4/StructureDefinition/DocumentBundle"],
    "security" : [{
      "system" : "http://terminology.hl7.org/CodeSystem/v3-Confidentiality",
      "code" : "V",
      "display" : "very restricted"
    }]
  },
  "identifier" : {
    "system" : "http://hip.in",
    "value" : "bc3c6c57-2053-4d0e-ac40-139ccccff645"
  },
  "type" : "document",
  "timestamp" : "2020-07-09T15:32:26.605+05:30",
  "entry" : [{
    "fullUrl" : "urn:uuid:ad82431f-501e-4988-8071-84a917722ced",
    "resource" : {
      "resourceType" : "Composition",
      "id" : "ad82431f-501e-4988-8071-84a917722ced",
      "meta" : {
        "versionId" : "1",
        "lastUpdated" : "2020-07-09T15:32:26.605+05:30",
        "profile" : ["https://nrces.in/ndhm/fhir/r4/StructureDefinition/PrescriptionRecord"]
      },
      "language" : "en-IN",
      "identifier" : {
        "system" : "https://ndhm.in/phr",
        "value" : "645bb0c3-ff7e-4123-bef5-3852a4784813"
      },
      "status" : "final",
      "type" : {
        "coding" : [{
          "system" : "http://snomed.info/sct",
          "code" : "440545006",
          "display" : "Prescription record"
        }],
        "text" : "Prescription record"
      },
      "subject" : {
        "reference" : "urn:uuid:773b3c48-6cb9-4627-ad26-e0f4a6f15d96",
        "display" : "Patient"
      },
      "date" : "2017-05-27T11:46:09+05:30",
      "author" : [{
        "reference" : "urn:uuid:15dce6b3-8a8f-4786-94e4-7d5d853f900a",
        "display" : "Practitioner"
      }],
      "title" : "Prescription record",
      "section" : [{
        "title" : "Prescription record",
        "code" : {
          "coding" : [{
            "system" : "http://snomed.info/sct",
            "code" : "440545006",
            "display" : "Prescription record"
          }]
        },
        "entry" : [{
          "reference" : "urn:uuid:39db3208-b061-46c4-8c2f-9fa3b540f251",
          "type" : "MedicationRequest"
        },
        {
          "reference" : "urn:uuid:03fcbd63-a025-4eb1-9948-44179e2a327b",
          "type" : "MedicationRequest"
        },
        {
          "reference" : "urn:uuid:a96a0d98-1d3d-4d49-ac47-bf2304dba04a",
          "type" : "Binary"
        }]
      }]
    }
  },
  {
    "fullUrl" : "urn:uuid:773b3c48-6cb9-4627-ad26-e0f4a6f15d96",
    "resource" : {
      "resourceType" : "Patient",
      "id" : "773b3c48-6cb9-4627-ad26-e0f4a6f15d96",
      "meta" : {
        "versionId" : "1",
        "lastUpdated" : "2020-07-09T14:58:58.181+05:30",
        "profile" : ["https://nrces.in/ndhm/fhir/r4/StructureDefinition/Patient"]
      },
      "identifier" : [{
        "type" : {
          "coding" : [{
            "system" : "http://terminology.hl7.org/CodeSystem/v2-0203",
            "code" : "MR",
            "display" : "Medical record number"
          }]
        },
        "system" : "https://healthid.ndhm.gov.in",
        "value" : "22-7225-4829-5255"
      }],
      "name" : [{
        "text" : "ABC"
      }],
      "telecom" : [{
        "system" : "phone",
        "value" : "+919818512600",
        "use" : "home"
      }],
      "gender" : "male",
      "birthDate" : "1981-01-12"
    }
  },
  {
    "fullUrl" : "urn:uuid:15dce6b3-8a8f-4786-94e4-7d5d853f900a",
    "resource" : {
      "resourceType" : "Practitioner",
      "id" : "15dce6b3-8a8f-4786-94e4-7d5d853f900a",
      "meta" : {
        "versionId" : "1",
        "lastUpdated" : "2019-05-29T14:58:58.181+05:30",
        "profile" : ["https://nrces.in/ndhm/fhir/r4/StructureDefinition/Practitioner"]
      },
      "identifier" : [{
        "type" : {
          "coding" : [{
            "system" : "http://terminology.hl7.org/CodeSystem/v2-0203",
            "code" : "MD",
            "display" : "Medical License number"
          }]
        },
        "system" : "https://doctor.ndhm.gov.in",
        "value" : "21-1521-3828-3227"
      }],
      "name" : [{
        "text" : "Dr. DEF"
      }]
    }
  },
  {
    "fullUrl" : "urn:uuid:39db3208-b061-46c4-8c2f-9fa3b540f251",
    "resource" : {
      "resourceType" : "MedicationRequest",
      "id" : "39db3208-b061-46c4-8c2f-9fa3b540f251",
      "meta" : {
        "profile" : ["https://nrces.in/ndhm/fhir/r4/StructureDefinition/MedicationRequest"]
      },
      "status" : "active",
      "intent" : "order",
      "medicationCodeableConcept" : {
        "coding" : [{
          "system" : "http://snomed.info/sct",
          "code" : "1145423002",
          "display" : "Azithromycin 250 mg oral tablet"
        }]
      },
      "subject" : {
        "reference" : "urn:uuid:773b3c48-6cb9-4627-ad26-e0f4a6f15d96",
        "display" : "ABC"
      },
      "authoredOn" : "2020-07-09",
      "requester" : {
        "reference" : "urn:uuid:15dce6b3-8a8f-4786-94e4-7d5d853f900a",
        "display" : "Dr. DEF"
      },
      "reasonCode" : [{
        "coding" : [{
          "system" : "http://snomed.info/sct",
          "code" : "11840006",
          "display" : "Traveler's diarrhea"
        }]
      }],
      "reasonReference" : [{
        "reference" : "urn:uuid:7cf1cadd-a045-4ae3-8bd3-8b18d14258ee",
        "display" : "Condition"
      }],
      "dosageInstruction" : [{
        "text" : "One tablet at once",
        "additionalInstruction" : [{
          "coding" : [{
            "system" : "http://snomed.info/sct",
            "code" : "311504000",
            "display" : "With or after food"
          }]
        }],
        "timing" : {
          "repeat" : {
            "frequency" : 1,
            "period" : 1,
            "periodUnit" : "d"
          }
        },
        "route" : {
          "coding" : [{
            "system" : "http://snomed.info/sct",
            "code" : "26643006",
            "display" : "Oral Route"
          }]
        },
        "method" : {
          "coding" : [{
            "system" : "http://snomed.info/sct",
            "code" : "421521009",
            "display" : "Swallow"
          }]
        }
      }]
    }
  },
  {
    "fullUrl" : "urn:uuid:03fcbd63-a025-4eb1-9948-44179e2a327b",
    "resource" : {
      "resourceType" : "MedicationRequest",
      "id" : "03fcbd63-a025-4eb1-9948-44179e2a327b",
      "meta" : {
        "profile" : ["https://nrces.in/ndhm/fhir/r4/StructureDefinition/MedicationRequest"]
      },
      "status" : "active",
      "intent" : "order",
      "medicationCodeableConcept" : {
        "text" : "Paracetemol 500mg Oral Tab"
      },
      "subject" : {
        "reference" : "urn:uuid:773b3c48-6cb9-4627-ad26-e0f4a6f15d96",
        "display" : "ABC"
      },
      "authoredOn" : "2020-07-09",
      "requester" : {
        "reference" : "urn:uuid:15dce6b3-8a8f-4786-94e4-7d5d853f900a",
        "display" : "Dr. DEF"
      },
      "reasonCode" : [{
        "coding" : [{
          "system" : "http://snomed.info/sct",
          "code" : "789400009",
          "display" : "Ross River disease"
        }]
      }],
      "reasonReference" : [{
        "reference" : "urn:uuid:7cf1cadd-a045-4ae3-8bd3-8b18d14258ee",
        "display" : "Condition"
      }],
      "dosageInstruction" : [{
        "text" : "Take two tablets orally with or after meal once a day"
      }]
    }
  },
  {
    "fullUrl" : "urn:uuid:7cf1cadd-a045-4ae3-8bd3-8b18d14258ee",
    "resource" : {
      "resourceType" : "Condition",
      "id" : "7cf1cadd-a045-4ae3-8bd3-8b18d14258ee",
      "meta" : {
        "profile" : ["https://nrces.in/ndhm/fhir/r4/StructureDefinition/Condition"]
      },
      "clinicalStatus" : {
        "coding" : [{
          "system" : "http://terminology.hl7.org/CodeSystem/condition-clinical",
          "code" : "active",
          "display" : "Active"
        }]
      },
      "code" : {
        "coding" : [{
          "system" : "http://snomed.info/sct",
          "code" : "21522001",
          "display" : "Abdominal pain"
        }],
        "text" : "Abdominal pain"
      },
      "subject" : {
        "reference" : "urn:uuid:773b3c48-6cb9-4627-ad26-e0f4a6f15d96",
        "display" : "Patient"
      }
    }
  },
  {
    "fullUrl" : "urn:uuid:a96a0d98-1d3d-4d49-ac47-bf2304dba04a",
    "resource" : {
      "resourceType" : "Binary",
      "id" : "a96a0d98-1d3d-4d49-ac47-bf2304dba04a",
      "meta" : {
        "profile" : ["https://nrces.in/ndhm/fhir/r4/StructureDefinition/Binary"]
      },
      "contentType" : "application/pdf",
      "data" : "some-base-64"
    }
  }],
  "signature" : {
    "type" : [{
      "system" : "urn:iso-astm:E1762-95:2013",
      "code" : "1.2.840.10065.1.12.1.1",
      "display" : "Author's Signature"
    }],
    "when" : "2020-07-09T07:42:33+10:00",
    "who" : {
      "reference" : "urn:uuid:15dce6b3-8a8f-4786-94e4-7d5d853f900a",
      "display" : "Practitioner"
    },
    "sigFormat" : "image/jpeg",
    "data" : "some-base-64"
  }
}