{
  "resourceType" : "Bundle",
  "id" : "Prescription-example-06",
  "meta" : {
    "versionId" : "1",
    "lastUpdated" : "2020-07-09T15:32:26.605+05:30",
    "profile" : ["https://nrces.in/ndhm/fhir/r4/StructureDefinition/DocumentBundle"],
    "security" : [{
      "system" : "http://terminology.hl7.org/CodeSystem/v3-Confidentiality",
      "code" : "V",
      "display" : "very restricted"
    }]
  },
  "identifier" : {
    "system" : "http://hip.in",
    "value" : "bc3c6c57-2053-4d0e-ac40-139ccccff645"
  },
  "type" : "document",
  "timestamp" : "2020-07-09T15:32:26.605+05:30",
  "entry" : [{
    "fullUrl" : "urn:uuid:f1ab8bba-a0ed-476a-a902-a1e08517020b",
    "resource" : {
      "resourceType" : "Composition",
      "id" : "f1ab8bba-a0ed-476a-a902-a1e08517020b",
      "meta" : {
        "versionId" : "1",
        "lastUpdated" : "2020-07-09T15:32:26.605+05:30",
        "profile" : ["https://nrces.in/ndhm/fhir/r4/StructureDefinition/PrescriptionRecord"]
      },
      "language" : "en-IN",
      "text" : {
        "status" : "generated",
        "div" : "<div xmlns=\"http://www.w3.org/1999/xhtml\" xml:lang=\"en-IN\" lang=\"en-IN\"><p><b>Generated Narrative: Composition</b><a name=\"f1ab8bba-a0ed-476a-a902-a1e08517020b\"> </a></p><div style=\"display: inline-block; background-color: #d9e0e7; padding: 6px; margin: 4px; border: 1px solid #8da1b4; border-radius: 5px; line-height: 60%\"><p style=\"margin-bottom: 0px\">Resource Composition &quot;f1ab8bba-a0ed-476a-a902-a1e08517020b&quot; Version &quot;1&quot; Updated &quot;2020-07-09 15:32:26+0530&quot;  (Language &quot;en-IN&quot;) </p><p style=\"margin-bottom: 0px\">Profile: <a href=\"StructureDefinition-PrescriptionRecord.html\">PrescriptionRecord</a></p></div><p><b>identifier</b>: <code>https://ndhm.in/phr</code>/645bb0c3-ff7e-4123-bef5-3852a4784813</p><p><b>status</b>: final</p><p><b>type</b>: Prescription record <span style=\"background: LightGoldenRodYellow; margin: 4px; border: 1px solid khaki\"> (<a href=\"https://browser.ihtsdotools.org/\">SNOMED CT</a>#440545006)</span></p><p><b>date</b>: 2017-05-27 11:46:09+0530</p><p><b>author</b>: <a href=\"#Practitioner_dc36f7c9-7ea5-4984-a02e-7102c215db17\">See above (urn:uuid:dc36f7c9-7ea5-4984-a02e-7102c215db17: Practitioner)</a></p><p><b>title</b>: Prescription record</p></div>"
      },
      "identifier" : {
        "system" : "https://ndhm.in/phr",
        "value" : "645bb0c3-ff7e-4123-bef5-3852a4784813"
      },
      "status" : "final",
      "type" : {
        "coding" : [{
          "system" : "http://snomed.info/sct",
          "code" : "440545006",
          "display" : "Prescription record"
        }],
        "text" : "Prescription record"
      },
      "subject" : {
        "reference" : "urn:uuid:f8d9e19e-5598-428c-ae03-b1cd44968b41",
        "display" : "Patient"
      },
      "date" : "2017-05-27T11:46:09+05:30",
      "author" : [{
        "reference" : "urn:uuid:dc36f7c9-7ea5-4984-a02e-7102c215db17",
        "display" : "Practitioner"
      }],
      "title" : "Prescription record",
      "section" : [{
        "title" : "Prescription record",
        "code" : {
          "coding" : [{
            "system" : "http://snomed.info/sct",
            "code" : "440545006",
            "display" : "Prescription record"
          }]
        },
        "entry" : [{
          "reference" : "urn:uuid:bceda2f2-484f-45f3-8bf1-f8bcd7631f50",
          "type" : "MedicationRequest"
        },
        {
          "reference" : "urn:uuid:c74e22c8-55b6-49c1-a891-ca5e3cd3a99c",
          "type" : "MedicationRequest"
        },
        {
          "reference" : "urn:uuid:2044f347-c58c-4237-b7f4-8c713b79f471",
          "type" : "Binary"
        }]
      }]
    }
  },
  {
    "fullUrl" : "urn:uuid:f8d9e19e-5598-428c-ae03-b1cd44968b41",
    "resource" : {
      "resourceType" : "Patient",
      "id" : "f8d9e19e-5598-428c-ae03-b1cd44968b41",
      "meta" : {
        "versionId" : "1",
        "lastUpdated" : "2020-07-09T14:58:58.181+05:30",
        "profile" : ["https://nrces.in/ndhm/fhir/r4/StructureDefinition/Patient"]
      },
      "text" : {
        "status" : "generated",
        "div" : "<div xmlns=\"http://www.w3.org/1999/xhtml\"><p><b>Generated Narrative: Patient</b><a name=\"f8d9e19e-5598-428c-ae03-b1cd44968b41\"> </a></p><div style=\"display: inline-block; background-color: #d9e0e7; padding: 6px; margin: 4px; border: 1px solid #8da1b4; border-radius: 5px; line-height: 60%\"><p style=\"margin-bottom: 0px\">Resource Patient &quot;f8d9e19e-5598-428c-ae03-b1cd44968b41&quot; Version &quot;1&quot; Updated &quot;2020-07-09 14:58:58+0530&quot; </p><p style=\"margin-bottom: 0px\">Profile: <a href=\"StructureDefinition-Patient.html\">Patient</a></p></div><p><b>identifier</b>: Medical record number/22-7225-4829-5255</p><p><b>name</b>: ABC</p><p><b>telecom</b>: <a href=\"tel:+919818512600\">+919818512600</a></p><p><b>gender</b>: male</p><p><b>birthDate</b>: 1981-01-12</p></div>"
      },
      "identifier" : [{
        "type" : {
          "coding" : [{
            "system" : "http://terminology.hl7.org/CodeSystem/v2-0203",
            "code" : "MR",
            "display" : "Medical record number"
          }]
        },
        "system" : "https://healthid.ndhm.gov.in",
        "value" : "22-7225-4829-5255"
      }],
      "name" : [{
        "text" : "ABC"
      }],
      "telecom" : [{
        "system" : "phone",
        "value" : "+919818512600",
        "use" : "home"
      }],
      "gender" : "male",
      "birthDate" : "1981-01-12"
    }
  },
  {
    "fullUrl" : "urn:uuid:dc36f7c9-7ea5-4984-a02e-7102c215db17",
    "resource" : {
      "resourceType" : "Practitioner",
      "id" : "dc36f7c9-7ea5-4984-a02e-7102c215db17",
      "meta" : {
        "versionId" : "1",
        "lastUpdated" : "2019-05-29T14:58:58.181+05:30",
        "profile" : ["https://nrces.in/ndhm/fhir/r4/StructureDefinition/Practitioner"]
      },
      "text" : {
        "status" : "generated",
        "div" : "<div xmlns=\"http://www.w3.org/1999/xhtml\"><p><b>Generated Narrative: Practitioner</b><a name=\"dc36f7c9-7ea5-4984-a02e-7102c215db17\"> </a></p><div style=\"display: inline-block; background-color: #d9e0e7; padding: 6px; margin: 4px; border: 1px solid #8da1b4; border-radius: 5px; line-height: 60%\"><p style=\"margin-bottom: 0px\">Resource Practitioner &quot;dc36f7c9-7ea5-4984-a02e-7102c215db17&quot; Version &quot;1&quot; Updated &quot;2019-05-29 14:58:58+0530&quot; </p><p style=\"margin-bottom: 0px\">Profile: <a href=\"StructureDefinition-Practitioner.html\">Practitioner</a></p></div><p><b>identifier</b>: Medical License number/21-1521-3828-3227</p><p><b>name</b>: Dr. DEF</p></div>"
      },
      "identifier" : [{
        "type" : {
          "coding" : [{
            "system" : "http://terminology.hl7.org/CodeSystem/v2-0203",
            "code" : "MD",
            "display" : "Medical License number"
          }]
        },
        "system" : "https://doctor.ndhm.gov.in",
        "value" : "21-1521-3828-3227"
      }],
      "name" : [{
        "text" : "Dr. DEF"
      }]
    }
  },
  {
    "fullUrl" : "urn:uuid:bceda2f2-484f-45f3-8bf1-f8bcd7631f50",
    "resource" : {
      "resourceType" : "MedicationRequest",
      "id" : "bceda2f2-484f-45f3-8bf1-f8bcd7631f50",
      "meta" : {
        "profile" : ["https://nrces.in/ndhm/fhir/r4/StructureDefinition/MedicationRequest"]
      },
      "text" : {
        "status" : "generated",
        "div" : "<div xmlns=\"http://www.w3.org/1999/xhtml\"><p><b>Generated Narrative: MedicationRequest</b><a name=\"bceda2f2-484f-45f3-8bf1-f8bcd7631f50\"> </a></p><div style=\"display: inline-block; background-color: #d9e0e7; padding: 6px; margin: 4px; border: 1px solid #8da1b4; border-radius: 5px; line-height: 60%\"><p style=\"margin-bottom: 0px\">Resource MedicationRequest &quot;bceda2f2-484f-45f3-8bf1-f8bcd7631f50&quot; </p><p style=\"margin-bottom: 0px\">Profile: <a href=\"StructureDefinition-MedicationRequest.html\">MedicationRequest</a></p></div><p><b>status</b>: active</p><p><b>intent</b>: order</p><p><b>medication</b>: Azithromycin 250 mg oral tablet <span style=\"background: LightGoldenRodYellow; margin: 4px; border: 1px solid khaki\"> (<a href=\"https://browser.ihtsdotools.org/\">SNOMED CT</a>#1145423002)</span></p><p><b>subject</b>: <a href=\"#Patient_f8d9e19e-5598-428c-ae03-b1cd44968b41\">See above (urn:uuid:f8d9e19e-5598-428c-ae03-b1cd44968b41: ABC)</a></p><p><b>authoredOn</b>: 2020-07-09</p><p><b>requester</b>: <a href=\"#Practitioner_dc36f7c9-7ea5-4984-a02e-7102c215db17\">See above (urn:uuid:dc36f7c9-7ea5-4984-a02e-7102c215db17: Dr. DEF)</a></p><p><b>reasonCode</b>: Traveler's diarrhea <span style=\"background: LightGoldenRodYellow; margin: 4px; border: 1px solid khaki\"> (<a href=\"https://browser.ihtsdotools.org/\">SNOMED CT</a>#11840006)</span></p><p><b>reasonReference</b>: <a href=\"#Condition_b650b103-5eee-43c3-b53a-228872e77488\">See above (urn:uuid:b650b103-5eee-43c3-b53a-228872e77488: Condition)</a></p><h3>DosageInstructions</h3><table class=\"grid\"><tr><td style=\"display: none\">-</td><td><b>Text</b></td><td><b>AdditionalInstruction</b></td><td><b>Timing</b></td><td><b>Route</b></td><td><b>Method</b></td></tr><tr><td style=\"display: none\">*</td><td>One tablet at once</td><td>With or after food <span style=\"background: LightGoldenRodYellow; margin: 4px; border: 1px solid khaki\"> (<a href=\"https://browser.ihtsdotools.org/\">SNOMED CT</a>#311504000)</span></td><td>Once per 1 days</td><td>Oral Route <span style=\"background: LightGoldenRodYellow; margin: 4px; border: 1px solid khaki\"> (<a href=\"https://browser.ihtsdotools.org/\">SNOMED CT</a>#26643006)</span></td><td>Swallow <span style=\"background: LightGoldenRodYellow; margin: 4px; border: 1px solid khaki\"> (<a href=\"https://browser.ihtsdotools.org/\">SNOMED CT</a>#421521009)</span></td></tr></table></div>"
      },
      "status" : "active",
      "intent" : "order",
      "medicationCodeableConcept" : {
        "coding" : [{
          "system" : "http://snomed.info/sct",
          "code" : "1145423002",
          "display" : "Azithromycin 250 mg oral tablet"
        }]
      },
      "subject" : {
        "reference" : "urn:uuid:f8d9e19e-5598-428c-ae03-b1cd44968b41",
        "display" : "ABC"
      },
      "authoredOn" : "2020-07-09",
      "requester" : {
        "reference" : "urn:uuid:dc36f7c9-7ea5-4984-a02e-7102c215db17",
        "display" : "Dr. DEF"
      },
      "reasonCode" : [{
        "coding" : [{
          "system" : "http://snomed.info/sct",
          "code" : "11840006",
          "display" : "Traveler's diarrhea"
        }]
      }],
      "reasonReference" : [{
        "reference" : "urn:uuid:b650b103-5eee-43c3-b53a-228872e77488",
        "display" : "Condition"
      }],
      "dosageInstruction" : [{
        "text" : "One tablet at once",
        "additionalInstruction" : [{
          "coding" : [{
            "system" : "http://snomed.info/sct",
            "code" : "311504000",
            "display" : "With or after food"
          }]
        }],
        "timing" : {
          "repeat" : {
            "frequency" : 1,
            "period" : 1,
            "periodUnit" : "d"
          }
        },
        "route" : {
          "coding" : [{
            "system" : "http://snomed.info/sct",
            "code" : "26643006",
            "display" : "Oral Route"
          }]
        },
        "method" : {
          "coding" : [{
            "system" : "http://snomed.info/sct",
            "code" : "421521009",
            "display" : "Swallow"
          }]
        }
      }]
    }
  },
  {
    "fullUrl" : "urn:uuid:c74e22c8-55b6-49c1-a891-ca5e3cd3a99c",
    "resource" : {
      "resourceType" : "MedicationRequest",
      "id" : "c74e22c8-55b6-49c1-a891-ca5e3cd3a99c",
      "meta" : {
        "profile" : ["https://nrces.in/ndhm/fhir/r4/StructureDefinition/MedicationRequest"]
      },
      "text" : {
        "status" : "generated",
        "div" : "<div xmlns=\"http://www.w3.org/1999/xhtml\"><p><b>Generated Narrative: MedicationRequest</b><a name=\"c74e22c8-55b6-49c1-a891-ca5e3cd3a99c\"> </a></p><div style=\"display: inline-block; background-color: #d9e0e7; padding: 6px; margin: 4px; border: 1px solid #8da1b4; border-radius: 5px; line-height: 60%\"><p style=\"margin-bottom: 0px\">Resource MedicationRequest &quot;c74e22c8-55b6-49c1-a891-ca5e3cd3a99c&quot; </p><p style=\"margin-bottom: 0px\">Profile: <a href=\"StructureDefinition-MedicationRequest.html\">MedicationRequest</a></p></div><p><b>status</b>: active</p><p><b>intent</b>: order</p><p><b>medication</b>: Paracetemol 500mg Oral Tab <span style=\"background: LightGoldenRodYellow; margin: 4px; border: 1px solid khaki\"> ()</span></p><p><b>subject</b>: <a href=\"#Patient_f8d9e19e-5598-428c-ae03-b1cd44968b41\">See above (urn:uuid:f8d9e19e-5598-428c-ae03-b1cd44968b41: ABC)</a></p><p><b>authoredOn</b>: 2020-07-09</p><p><b>requester</b>: <a href=\"#Practitioner_dc36f7c9-7ea5-4984-a02e-7102c215db17\">See above (urn:uuid:dc36f7c9-7ea5-4984-a02e-7102c215db17: Dr. DEF)</a></p><p><b>reasonCode</b>: Ross River disease <span style=\"background: LightGoldenRodYellow; margin: 4px; border: 1px solid khaki\"> (<a href=\"https://browser.ihtsdotools.org/\">SNOMED CT</a>#789400009)</span></p><p><b>reasonReference</b>: <a href=\"#Condition_b650b103-5eee-43c3-b53a-228872e77488\">See above (urn:uuid:b650b103-5eee-43c3-b53a-228872e77488: Condition)</a></p><h3>DosageInstructions</h3><table class=\"grid\"><tr><td style=\"display: none\">-</td><td><b>Text</b></td></tr><tr><td style=\"display: none\">*</td><td>Take two tablets orally with or after meal once a day</td></tr></table></div>"
      },
      "status" : "active",
      "intent" : "order",
      "medicationCodeableConcept" : {
        "text" : "Paracetemol 500mg Oral Tab"
      },
      "subject" : {
        "reference" : "urn:uuid:f8d9e19e-5598-428c-ae03-b1cd44968b41",
        "display" : "ABC"
      },
      "authoredOn" : "2020-07-09",
      "requester" : {
        "reference" : "urn:uuid:dc36f7c9-7ea5-4984-a02e-7102c215db17",
        "display" : "Dr. DEF"
      },
      "reasonCode" : [{
        "coding" : [{
          "system" : "http://snomed.info/sct",
          "code" : "789400009",
          "display" : "Ross River disease"
        }]
      }],
      "reasonReference" : [{
        "reference" : "urn:uuid:b650b103-5eee-43c3-b53a-228872e77488",
        "display" : "Condition"
      }],
      "dosageInstruction" : [{
        "text" : "Take two tablets orally with or after meal once a day"
      }]
    }
  },
  {
    "fullUrl" : "urn:uuid:b650b103-5eee-43c3-b53a-228872e77488",
    "resource" : {
      "resourceType" : "Condition",
      "id" : "b650b103-5eee-43c3-b53a-228872e77488",
      "meta" : {
        "profile" : ["https://nrces.in/ndhm/fhir/r4/StructureDefinition/Condition"]
      },
      "text" : {
        "status" : "generated",
        "div" : "<div xmlns=\"http://www.w3.org/1999/xhtml\"><p><b>Generated Narrative: Condition</b><a name=\"b650b103-5eee-43c3-b53a-228872e77488\"> </a></p><div style=\"display: inline-block; background-color: #d9e0e7; padding: 6px; margin: 4px; border: 1px solid #8da1b4; border-radius: 5px; line-height: 60%\"><p style=\"margin-bottom: 0px\">Resource Condition &quot;b650b103-5eee-43c3-b53a-228872e77488&quot; </p><p style=\"margin-bottom: 0px\">Profile: <a href=\"StructureDefinition-Condition.html\">Condition</a></p></div><p><b>code</b>: Abdominal pain <span style=\"background: LightGoldenRodYellow; margin: 4px; border: 1px solid khaki\"> (<a href=\"https://browser.ihtsdotools.org/\">SNOMED CT</a>#21522001)</span></p><p><b>subject</b>: <a href=\"#Patient_f8d9e19e-5598-428c-ae03-b1cd44968b41\">See above (urn:uuid:f8d9e19e-5598-428c-ae03-b1cd44968b41: Patient)</a></p></div>"
      },
      "code" : {
        "coding" : [{
          "system" : "http://snomed.info/sct",
          "code" : "21522001",
          "display" : "Abdominal pain"
        }],
        "text" : "Abdominal pain"
      },
      "subject" : {
        "reference" : "urn:uuid:f8d9e19e-5598-428c-ae03-b1cd44968b41",
        "display" : "Patient"
      }
    }
  },
  {
    "fullUrl" : "urn:uuid:2044f347-c58c-4237-b7f4-8c713b79f471",
    "resource" : {
      "resourceType" : "Binary",
      "id" : "2044f347-c58c-4237-b7f4-8c713b79f471",
      "meta" : {
        "profile" : ["https://nrces.in/ndhm/fhir/r4/StructureDefinition/Binary"]
      },
      "contentType" : "application/pdf",
      "data" : "some-base-64"
    }
  }],
  "signature" : {
    "type" : [{
      "system" : "urn:iso-astm:E1762-95:2013",
      "code" : "1.2.840.10065.1.12.1.1",
      "display" : "Author's Signature"
    }],
    "when" : "2020-07-09T07:42:33+10:00",
    "who" : {
      "reference" : "urn:uuid:dc36f7c9-7ea5-4984-a02e-7102c215db17",
      "display" : "Practitioner"
    },
    "sigFormat" : "image/jpeg",
    "data" : "some-base-64"
  }
}