{
  "resourceType" : "Bundle",
  "id" : "HealthDocumentRecord-example-01",
  "meta" : {
    "versionId" : "1",
    "lastUpdated" : "2020-07-09T15:32:26.605+05:30",
    "profile" : ["https://nrces.in/ndhm/fhir/r4/StructureDefinition/DocumentBundle"],
    "security" : [{
      "system" : "http://terminology.hl7.org/CodeSystem/v3-Confidentiality",
      "code" : "V",
      "display" : "very restricted"
    }]
  },
  "identifier" : {
    "system" : "http://hip.in",
    "value" : "305fecc2-4ba2-46cc-9ccd-efa755aff51d"
  },
  "type" : "document",
  "timestamp" : "2020-07-09T15:32:26.605+05:30",
  "entry" : [{
    "fullUrl" : "urn:uuid:f1ab8bba-a0ed-476a-a902-a1e08517020b",
    "resource" : {
      "resourceType" : "Composition",
      "id" : "f1ab8bba-a0ed-476a-a902-a1e08517020b",
      "meta" : {
        "versionId" : "1",
        "lastUpdated" : "2020-07-09T15:32:26.605+05:30",
        "profile" : ["https://nrces.in/ndhm/fhir/r4/StructureDefinition/HealthDocumentRecord"]
      },
      "language" : "en-IN",
      "text" : {
        "status" : "generated",
        "div" : "<div xmlns=\"http://www.w3.org/1999/xhtml\" xml:lang=\"en-IN\" lang=\"en-IN\"><p><b>Generated Narrative: Composition</b><a name=\"f1ab8bba-a0ed-476a-a902-a1e08517020b\"> </a></p><div style=\"display: inline-block; background-color: #d9e0e7; padding: 6px; margin: 4px; border: 1px solid #8da1b4; border-radius: 5px; line-height: 60%\"><p style=\"margin-bottom: 0px\">Resource Composition &quot;f1ab8bba-a0ed-476a-a902-a1e08517020b&quot; Version &quot;1&quot; Updated &quot;2020-07-09 15:32:26+0530&quot;  (Language &quot;en-IN&quot;) </p><p style=\"margin-bottom: 0px\">Profile: <a href=\"StructureDefinition-HealthDocumentRecord.html\">HealthDocumentRecord</a></p></div><p><b>identifier</b>: <code>https://ndhm.in/phr</code>/645bb0c3-ff7e-4123-bef5-3852a4784813</p><p><b>status</b>: final</p><p><b>type</b>: Record artifact <span style=\"background: LightGoldenRodYellow; margin: 4px; border: 1px solid khaki\"> (<a href=\"https://browser.ihtsdotools.org/\">SNOMED CT</a>#419891008)</span></p><p><b>date</b>: 2020-07-09 15:32:26+0530</p><p><b>author</b>: <a href=\"#Practitioner_dc36f7c9-7ea5-4984-a02e-7102c215db17\">See above (urn:uuid:dc36f7c9-7ea5-4984-a02e-7102c215db17: Dr. DEF)</a></p><p><b>title</b>: Health Document</p></div>"
      },
      "identifier" : {
        "system" : "https://ndhm.in/phr",
        "value" : "645bb0c3-ff7e-4123-bef5-3852a4784813"
      },
      "status" : "final",
      "type" : {
        "coding" : [{
          "system" : "http://snomed.info/sct",
          "code" : "419891008",
          "display" : "Record artifact"
        }],
        "text" : "Record artifact"
      },
      "subject" : {
        "reference" : "urn:uuid:f8d9e19e-5598-428c-ae03-b1cd44968b41",
        "display" : "ABC"
      },
      "date" : "2020-07-09T15:32:26.605+05:30",
      "author" : [{
        "reference" : "urn:uuid:dc36f7c9-7ea5-4984-a02e-7102c215db17",
        "display" : "Dr. DEF"
      }],
      "title" : "Health Document",
      "section" : [{
        "title" : "Health Document",
        "entry" : [{
          "reference" : "urn:uuid:44486a09-bcad-420b-ba14-b769fafb7f84",
          "display" : "DocumentReference"
        }]
      }]
    }
  },
  {
    "fullUrl" : "urn:uuid:dc36f7c9-7ea5-4984-a02e-7102c215db17",
    "resource" : {
      "resourceType" : "Practitioner",
      "id" : "dc36f7c9-7ea5-4984-a02e-7102c215db17",
      "meta" : {
        "versionId" : "1",
        "lastUpdated" : "2020-07-09T15:32:26.605+05:30",
        "profile" : ["https://nrces.in/ndhm/fhir/r4/StructureDefinition/Practitioner"]
      },
      "text" : {
        "status" : "generated",
        "div" : "<div xmlns=\"http://www.w3.org/1999/xhtml\"><p><b>Generated Narrative: Practitioner</b><a name=\"dc36f7c9-7ea5-4984-a02e-7102c215db17\"> </a></p><div style=\"display: inline-block; background-color: #d9e0e7; padding: 6px; margin: 4px; border: 1px solid #8da1b4; border-radius: 5px; line-height: 60%\"><p style=\"margin-bottom: 0px\">Resource Practitioner &quot;dc36f7c9-7ea5-4984-a02e-7102c215db17&quot; Version &quot;1&quot; Updated &quot;2020-07-09 15:32:26+0530&quot; </p><p style=\"margin-bottom: 0px\">Profile: <a href=\"StructureDefinition-Practitioner.html\">Practitioner</a></p></div><p><b>identifier</b>: Medical License number/21-1521-3828-3227</p><p><b>name</b>: Dr. DEF</p></div>"
      },
      "identifier" : [{
        "type" : {
          "coding" : [{
            "system" : "http://terminology.hl7.org/CodeSystem/v2-0203",
            "code" : "MD",
            "display" : "Medical License number"
          }]
        },
        "system" : "https://doctor.ndhm.gov.in",
        "value" : "21-1521-3828-3227"
      }],
      "name" : [{
        "text" : "Dr. DEF"
      }]
    }
  },
  {
    "fullUrl" : "urn:uuid:f8d9e19e-5598-428c-ae03-b1cd44968b41",
    "resource" : {
      "resourceType" : "Patient",
      "id" : "f8d9e19e-5598-428c-ae03-b1cd44968b41",
      "meta" : {
        "versionId" : "1",
        "lastUpdated" : "2020-07-09T14:58:58.181+05:30",
        "profile" : ["https://nrces.in/ndhm/fhir/r4/StructureDefinition/Patient"]
      },
      "text" : {
        "status" : "generated",
        "div" : "<div xmlns=\"http://www.w3.org/1999/xhtml\"><p><b>Generated Narrative: Patient</b><a name=\"f8d9e19e-5598-428c-ae03-b1cd44968b41\"> </a></p><div style=\"display: inline-block; background-color: #d9e0e7; padding: 6px; margin: 4px; border: 1px solid #8da1b4; border-radius: 5px; line-height: 60%\"><p style=\"margin-bottom: 0px\">Resource Patient &quot;f8d9e19e-5598-428c-ae03-b1cd44968b41&quot; Version &quot;1&quot; Updated &quot;2020-07-09 14:58:58+0530&quot; </p><p style=\"margin-bottom: 0px\">Profile: <a href=\"StructureDefinition-Patient.html\">Patient</a></p></div><p><b>identifier</b>: Medical record number/22-7225-4829-5255</p><p><b>name</b>: ABC</p><p><b>telecom</b>: <a href=\"tel:+919818512600\">+919818512600</a></p><p><b>gender</b>: male</p><p><b>birthDate</b>: 1981-01-12</p></div>"
      },
      "identifier" : [{
        "type" : {
          "coding" : [{
            "system" : "http://terminology.hl7.org/CodeSystem/v2-0203",
            "code" : "MR",
            "display" : "Medical record number"
          }]
        },
        "system" : "https://healthid.ndhm.gov.in",
        "value" : "22-7225-4829-5255"
      }],
      "name" : [{
        "text" : "ABC"
      }],
      "telecom" : [{
        "system" : "phone",
        "value" : "+919818512600",
        "use" : "home"
      }],
      "gender" : "male",
      "birthDate" : "1981-01-12"
    }
  },
  {
    "fullUrl" : "urn:uuid:44486a09-bcad-420b-ba14-b769fafb7f84",
    "resource" : {
      "resourceType" : "DocumentReference",
      "id" : "44486a09-bcad-420b-ba14-b769fafb7f84",
      "meta" : {
        "profile" : ["https://nrces.in/ndhm/fhir/r4/StructureDefinition/DocumentReference"]
      },
      "text" : {
        "status" : "generated",
        "div" : "<div xmlns=\"http://www.w3.org/1999/xhtml\"><p><b>Generated Narrative: DocumentReference</b><a name=\"44486a09-bcad-420b-ba14-b769fafb7f84\"> </a></p><div style=\"display: inline-block; background-color: #d9e0e7; padding: 6px; margin: 4px; border: 1px solid #8da1b4; border-radius: 5px; line-height: 60%\"><p style=\"margin-bottom: 0px\">Resource DocumentReference &quot;44486a09-bcad-420b-ba14-b769fafb7f84&quot; </p><p style=\"margin-bottom: 0px\">Profile: <a href=\"StructureDefinition-DocumentReference.html\">DocumentReference</a></p></div><p><b>status</b>: current</p><p><b>docStatus</b>: final</p><p><b>type</b>: Wellness Record <span style=\"background: LightGoldenRodYellow; margin: 4px; border: 1px solid khaki\"> ()</span></p><p><b>subject</b>: <a href=\"#Patient_f8d9e19e-5598-428c-ae03-b1cd44968b41\">See above (urn:uuid:f8d9e19e-5598-428c-ae03-b1cd44968b41: Patient)</a></p><blockquote><p><b>content</b></p><h3>Attachments</h3><table class=\"grid\"><tr><td style=\"display: none\">-</td><td><b>ContentType</b></td><td><b>Language</b></td><td><b>Data</b></td><td><b>Title</b></td><td><b>Creation</b></td></tr><tr><td style=\"display: none\">*</td><td>application/pdf</td><td>en-IN</td><td>(base64 data - 302995 bytes)</td><td>Laboratory report</td><td>2019-05-29 14:58:58+0530</td></tr></table></blockquote></div>"
      },
      "status" : "current",
      "docStatus" : "final",
      "type" : {
        "text" : "Wellness Record"
      },
      "subject" : {
        "reference" : "urn:uuid:f8d9e19e-5598-428c-ae03-b1cd44968b41",
        "display" : "Patient"
      },
      "content" : [{
        "attachment" : {
          "contentType" : "application/pdf",
          "language" : "en-IN",
          "data" : "some-base-64",
          "title" : "Laboratory report",
          "creation" : "2019-05-29T14:58:58.181+05:30"
        }
      }]
    }
  }],
  "signature" : {
    "type" : [{
      "system" : "urn:iso-astm:E1762-95:2013",
      "code" : "1.2.840.10065.1.12.1.1",
      "display" : "Author's Signature"
    }],
    "when" : "2020-07-09T07:42:33+10:00",
    "who" : {
      "reference" : "urn:uuid:dc36f7c9-7ea5-4984-a02e-7102c215db17",
      "display" : "Practitioner"
    },
    "sigFormat" : "image/jpeg",
    "data" : "some-base-64"
  }
}