{
  "resourceType": "Bundle",
  "id": "HealthDocumentRecord-68c279e7f1991e244ecedc52",
  "meta": {
    "versionId": "1",
    "lastUpdated": "2025-09-11T12:02:48.371Z",
    "profile": [
      "https://nrces.in/ndhm/fhir/r4/StructureDefinition/DocumentBundle"
    ],
    "security": [
      {
        "system": "http://terminology.hl7.org/CodeSystem/v3-Confidentiality",
        "code": "V",
        "display": "very restricted"
      }
    ]
  },
  "identifier": {
    "system": "http://hip.in",
    "value": "1442498c-98f2-4695-befd-47fd5e83e9c2"
  },
  "type": "document",
  "timestamp": "2025-09-11T12:02:48.371Z",
  "entry": [
    {
      "fullUrl": "urn:uuid:6615727e-d738-4ec0-b27d-1dedb380f844",
      "resource": {
        "resourceType": "Composition",
        "id": "6615727e-d738-4ec0-b27d-1dedb380f844",
        "meta": {
          "versionId": "1",
          "lastUpdated": "2025-09-11T12:02:48.371Z",
          "profile": [
            "https://nrces.in/ndhm/fhir/r4/StructureDefinition/HealthDocumentRecord"
          ]
        },
        "language": "en-IN",
        "identifier": {
          "system": "https://ndhm.in/phr",
          "value": "e4cd96d7-67d2-4b07-bb33-3c90d67b7c7d"
        },
        "status": "final",
        "type": {
          "coding": [
            {
              "system": "http://snomed.info/sct",
              "code": "419891008",
              "display": "Record artifact"
            }
          ],
          "text": "Record artifact"
        },
        "subject": {
          "reference": "urn:uuid:4e7f4737-82c2-4c53-a179-39fc64f06d84",
          "display": "Ayush Wardhan"
        },
        "date": "2025-09-11T12:02:48.371Z",
        "author": [
          {
            "reference": "urn:uuid:3e049235-1737-42c4-96c2-6c88761ec4d8",
            "display": "Manish Awasthi"
          }
        ],
        "title": "A random doc",
        "section": [
          {
            "title": "A random doc",
            "entry": [
              {
                "reference": "urn:uuid:6258fda6-4c7c-43c6-b885-af4db6de75f5",
                "display": "DocumentReference"
              }
            ]
          }
        ]
      }
    },
    {
      "fullUrl": "urn:uuid:3e049235-1737-42c4-96c2-6c88761ec4d8",
      "resource": {
        "resourceType": "Practitioner",
        "id": "3e049235-1737-42c4-96c2-6c88761ec4d8",
        "meta": {
          "versionId": "1",
          "lastUpdated": "2025-09-11T12:02:48.371Z",
          "profile": [
            "https://nrces.in/ndhm/fhir/r4/StructureDefinition/Practitioner"
          ]
        },
        "identifier": [
          {
            "type": {
              "coding": [
                {
                  "system": "http://terminology.hl7.org/CodeSystem/v2-0203",
                  "code": "MD",
                  "display": "Medical License number"
                }
              ]
            },
            "system": "https://doctor.ndhm.gov.in",
            "value": "6772cf123687cb8eccda9fbd"
          }
        ],
        "name": [{ "text": "Manish Awasthi" }]
      }
    },
    {
      "fullUrl": "urn:uuid:4e7f4737-82c2-4c53-a179-39fc64f06d84",
      "resource": {
        "resourceType": "Patient",
        "id": "4e7f4737-82c2-4c53-a179-39fc64f06d84",
        "meta": {
          "versionId": "1",
          "lastUpdated": "2025-09-11T12:02:48.371Z",
          "profile": [
            "https://nrces.in/ndhm/fhir/r4/StructureDefinition/Patient"
          ]
        },
        "identifier": [
          {
            "type": {
              "coding": [
                {
                  "system": "http://terminology.hl7.org/CodeSystem/v2-0203",
                  "code": "MR",
                  "display": "Medical record number"
                }
              ]
            },
            "system": "https://healthid.ndhm.gov.in",
            "value": "MOH19965"
          }
        ],
        "name": [{ "text": "Ayush Wardhan" }],
        "telecom": [
          { "system": "phone", "value": "8506046684", "use": "home" }
        ],
        "gender": "male",
        "birthDate": "2000-11-21"
      }
    },
    {
      "fullUrl": "urn:uuid:6258fda6-4c7c-43c6-b885-af4db6de75f5",
      "resource": {
        "resourceType": "DocumentReference",
        "id": "6258fda6-4c7c-43c6-b885-af4db6de75f5",
        "meta": {
          "profile": [
            "https://nrces.in/ndhm/fhir/r4/StructureDefinition/DocumentReference"
          ]
        },
        "status": "current",
        "docStatus": "final",
        "type": { "text": "A random doc" },
        "subject": {
          "reference": "urn:uuid:4e7f4737-82c2-4c53-a179-39fc64f06d84",
          "display": "Patient"
        },
        "content": [
          {
            "attachment": {
              "contentType": "application/pdf",
              "language": "en-IN",
              "data": "some-base-64",
              "title": "A random doc",
              "creation": "2025-09-11T07:27:35.485Z"
            }
          }
        ]
      }
    },
    {
      "fullUrl": "urn:uuid:9fcdf395-72d8-42fa-9870-34c028668ba5",
      "resource": {
        "resourceType": "Organization",
        "id": "9fcdf395-72d8-42fa-9870-34c028668ba5",
        "meta": {
          "profile": [
            "https://nrces.in/ndhm/fhir/r4/StructureDefinition/Organization"
          ]
        },
        "identifier": [
          { "system": "https://facility.ndhm.gov.in", "value": "39232493" }
        ],
        "name": "Iqline",
        "telecom": [
          { "system": "phone", "value": "+91 243 2634 1278", "use": "work" },
          { "system": "email", "value": "info@iqline.co.in", "use": "work" }
        ]
      }
    }
  ],
  "signature": {
    "type": [
      {
        "system": "urn:iso-astm:E1762-95:2013",
        "code": "1.2.840.10065.1.12.1.1",
        "display": "Author's Signature"
      }
    ],
    "when": "2025-09-11T12:02:48.371Z",
    "who": {
      "reference": "urn:uuid:3e049235-1737-42c4-96c2-6c88761ec4d8",
      "display": "Practitioner"
    },
    "sigFormat": "image/jpeg",
    "data": "some-base-64"
  }
}
