{
  "resourceType": "Bundle",
  "id": "PrescriptionRecord-68c27ae4f1991e244ecedcf2",
  "meta": {
    "versionId": "1",
    "lastUpdated": "2025-09-11T12:02:48.429Z",
    "profile": [
      "https://nrces.in/ndhm/fhir/r4/StructureDefinition/DocumentBundle"
    ],
    "security": [
      {
        "system": "http://terminology.hl7.org/CodeSystem/v3-Confidentiality",
        "code": "V",
        "display": "very restricted"
      }
    ]
  },
  "identifier": {
    "system": "http://hip.in",
    "value": "d61cb94e-26d7-4587-a659-0a48594b2592"
  },
  "type": "document",
  "timestamp": "2025-09-11T12:02:48.429Z",
  "entry": [
    {
      "fullUrl": "urn:uuid:ab50e2ff-b8ba-438d-96f0-e4319992ace1",
      "resource": {
        "resourceType": "Composition",
        "id": "ab50e2ff-b8ba-438d-96f0-e4319992ace1",
        "meta": {
          "versionId": "1",
          "lastUpdated": "2025-09-11T12:02:48.429Z",
          "profile": [
            "https://nrces.in/ndhm/fhir/r4/StructureDefinition/PrescriptionRecord"
          ]
        },
        "language": "en-IN",
        "identifier": {
          "system": "https://ndhm.in/phr",
          "value": "a02cd835-d6d8-4f29-9970-0648ff96f034"
        },
        "status": "final",
        "type": {
          "coding": [
            {
              "system": "http://snomed.info/sct",
              "code": "440545006",
              "display": "Prescription record"
            }
          ],
          "text": "Prescription record"
        },
        "subject": {
          "reference": "urn:uuid:b2030982-3bd0-411b-94d4-9fd1e1ba7502",
          "display": "Patient"
        },
        "date": "2025-09-11T12:02:48.429Z",
        "author": [
          {
            "reference": "urn:uuid:f1ff3ff3-3bc2-4851-99de-b069cda5bd1d",
            "display": "Practitioner"
          }
        ],
        "title": "Prescription record",
        "section": [
          {
            "title": "Prescription record",
            "code": {
              "coding": [
                {
                  "system": "http://snomed.info/sct",
                  "code": "440545006",
                  "display": "Prescription record"
                }
              ]
            },
            "entry": [
              {
                "reference": "urn:uuid:82036de8-c484-4524-b892-fbae2f4ee13d",
                "type": "MedicationRequest"
              }
            ]
          }
        ]
      }
    },
    {
      "fullUrl": "urn:uuid:b2030982-3bd0-411b-94d4-9fd1e1ba7502",
      "resource": {
        "resourceType": "Patient",
        "id": "b2030982-3bd0-411b-94d4-9fd1e1ba7502",
        "meta": {
          "versionId": "1",
          "lastUpdated": "2025-09-11T12:02:48.429Z",
          "profile": [
            "https://nrces.in/ndhm/fhir/r4/StructureDefinition/Patient"
          ]
        },
        "identifier": [
          {
            "type": {
              "coding": [
                {
                  "system": "http://terminology.hl7.org/CodeSystem/v2-0203",
                  "code": "MR",
                  "display": "Medical record number"
                }
              ]
            },
            "system": "https://healthid.ndhm.gov.in",
            "value": "MOH19965"
          }
        ],
        "name": [{ "text": "Ayush Wardhan" }],
        "telecom": [
          { "system": "phone", "value": "8506046684", "use": "home" }
        ],
        "gender": "male",
        "birthDate": "2000-11-21"
      }
    },
    {
      "fullUrl": "urn:uuid:f1ff3ff3-3bc2-4851-99de-b069cda5bd1d",
      "resource": {
        "resourceType": "Practitioner",
        "id": "f1ff3ff3-3bc2-4851-99de-b069cda5bd1d",
        "meta": {
          "versionId": "1",
          "lastUpdated": "2025-09-11T12:02:48.429Z",
          "profile": [
            "https://nrces.in/ndhm/fhir/r4/StructureDefinition/Practitioner"
          ]
        },
        "identifier": [
          {
            "type": {
              "coding": [
                {
                  "system": "http://terminology.hl7.org/CodeSystem/v2-0203",
                  "code": "MD",
                  "display": "Medical License number"
                }
              ]
            },
            "system": "https://doctor.ndhm.gov.in",
            "value": "6772cf123687cb8eccda9fbd"
          }
        ],
        "name": [{ "text": "Manish Awasthi" }]
      }
    },
    {
      "fullUrl": "urn:uuid:efaac920-f790-48bf-bc6d-7045b4ab90f2",
      "resource": {
        "resourceType": "Condition",
        "id": "efaac920-f790-48bf-bc6d-7045b4ab90f2",
        "meta": {
          "profile": [
            "https://nrces.in/ndhm/fhir/r4/StructureDefinition/Condition"
          ]
        },
        "code": { "text": "Burnout" },
        "subject": {
          "reference": "urn:uuid:b2030982-3bd0-411b-94d4-9fd1e1ba7502",
          "display": "Patient"
        }
      }
    },
    {
      "fullUrl": "urn:uuid:82036de8-c484-4524-b892-fbae2f4ee13d",
      "resource": {
        "resourceType": "MedicationRequest",
        "id": "82036de8-c484-4524-b892-fbae2f4ee13d",
        "meta": {
          "profile": [
            "https://nrces.in/ndhm/fhir/r4/StructureDefinition/MedicationRequest"
          ]
        },
        "status": "active",
        "intent": "order",
        "medicationCodeableConcept": {
          "text": "Azithromycin 250 mg oral tablet"
        },
        "subject": {
          "reference": "urn:uuid:b2030982-3bd0-411b-94d4-9fd1e1ba7502",
          "display": "Ayush Wardhan"
        },
        "authoredOn": "2025-09-11",
        "requester": {
          "reference": "urn:uuid:f1ff3ff3-3bc2-4851-99de-b069cda5bd1d",
          "display": "Manish Awasthi"
        },
        "reasonCode": [{ "text": "Burnout" }],
        "reasonReference": [
          {
            "reference": "urn:uuid:efaac920-f790-48bf-bc6d-7045b4ab90f2",
            "display": "Condition"
          }
        ],
        "dosageInstruction": [{ "text": "--1, 1, Once Daily" }]
      }
    },
    {
      "fullUrl": "urn:uuid:ea81b3b6-2bea-402d-b1b0-da15c91c6e3e",
      "resource": {
        "resourceType": "Organization",
        "id": "ea81b3b6-2bea-402d-b1b0-da15c91c6e3e",
        "meta": {
          "profile": [
            "https://nrces.in/ndhm/fhir/r4/StructureDefinition/Organization"
          ]
        },
        "identifier": [
          { "system": "https://facility.ndhm.gov.in", "value": "39232493" }
        ],
        "name": "Iqline",
        "telecom": [
          { "system": "phone", "value": "+91 243 2634 1278", "use": "work" },
          { "system": "email", "value": "info@iqline.co.in", "use": "work" }
        ]
      }
    }
  ],
  "signature": {
    "type": [
      {
        "system": "urn:iso-astm:E1762-95:2013",
        "code": "1.2.840.10065.1.12.1.1",
        "display": "Author's Signature"
      }
    ],
    "when": "2025-09-11T12:02:48.429Z",
    "who": {
      "reference": "urn:uuid:f1ff3ff3-3bc2-4851-99de-b069cda5bd1d",
      "display": "Practitioner"
    },
    "sigFormat": "image/jpeg",
    "data": "some-base-64"
  }
}
